
Temp = 293.8K  -  Data version 1
Harder, Brault, Johnston and Mount  [JGR, 102, 3861-3880, 1997]
"Temperature Dependent NO2 Cross Sections at High Spectral Resolution"
NO2 cross section [10^-19 cm^2/molecule]
  Data Smoothed with a Gaussian FWHM = 0.1 nm
    Compiled by E.P.Shettle, NRL, Washington, DC

Nvalues  1st Wave  d(wave) last Wave   Temp
          [nm]     [nm]     [nm]       [K]
  4093    345.2     0.05     549.8     293.8

 4.3500 4.3643 4.3726 4.3638 4.3283 4.2837 4.2573 4.2448 4.2331 4.2405
 4.2686 4.3019 4.3382 4.3665 4.3952 4.4387 4.4915 4.5423 4.5853 4.5931
 4.6003 4.6398 4.6567 4.6607 4.6806 4.6625 4.6545 4.6705 4.7184 4.7631
 4.7516 4.7458 4.7595 4.7477 4.7059 4.6951 4.6814 4.6268 4.5794 4.5492
 4.5303 4.5072 4.4825 4.4533 4.4340 4.4402 4.4586 4.4561 4.4396 4.4366
 4.4393 4.4595 4.5079 4.5483 4.5993 4.6505 4.6963 4.8148 4.9985 5.1537
 5.2746 5.3668 5.4409 5.5021 5.5337 5.5549 5.5493 5.5039 5.4509 5.3920
 5.3215 5.2456 5.1845 5.1381 5.0975 5.0534 4.9658 4.8680 4.7814 4.6807
 4.5838 4.5069 4.4269 4.3515 4.3115 4.2819 4.2587 4.2580 4.2409 4.2395
 4.2485 4.2277 4.2167 4.2485 4.2763 4.2589 4.2500 4.2735 4.2896 4.3060
 4.3219 4.3556 4.3891 4.4262 4.4830 4.5350 4.5965 4.6400 4.6583 4.6624
 4.6828 4.7212 4.7568 4.7702 4.7649 4.7652 4.7796 4.8127 4.8390 4.8521
 4.8561 4.8668 4.8757 4.8538 4.8130 4.7772 4.7425 4.7048 4.6407 4.5797
 4.5270 4.4904 4.4693 4.4527 4.4620 4.4965 4.5431 4.5932 4.6451 4.6862
 4.7108 4.7263 4.7329 4.7326 4.7339 4.7153 4.6843 4.6683 4.6379 4.5755
 4.5053 4.4325 4.3606 4.3104 4.2711 4.2439 4.2251 4.2118 4.2059 4.2237
 4.2639 4.2740 4.2802 4.3125 4.3712 4.4241 4.4577 4.5033 4.5739 4.6523
 4.7264 4.7976 4.8781 4.9529 5.0252 5.0979 5.1715 5.2568 5.3453 5.4278
 5.5089 5.5905 5.6585 5.6975 5.7131 5.7203 5.7353 5.7345 5.7187 5.7123
 5.6905 5.6545 5.6129 5.5687 5.5294 5.4747 5.3977 5.3234 5.2681 5.2254
 5.1842 5.1423 5.0906 5.0359 4.9884 4.9531 4.9237 4.8760 4.8380 4.8099
 4.7856 4.7589 4.7174 4.6947 4.6936 4.6909 4.7054 4.7440 4.7853 4.8129
 4.8378 4.8707 4.9037 4.9278 4.9593 4.9933 5.0340 5.0879 5.1451 5.2129
 5.2892 5.3600 5.4282 5.4898 5.5529 5.6202 5.6852 5.7411 5.7975 5.8496
 5.8800 5.8735 5.8588 5.8441 5.8189 5.7949 5.7674 5.7442 5.7101 5.6522
 5.5965 5.5494 5.5104 5.4874 5.4718 5.4502 5.4358 5.4110 5.3726 5.3417
 5.3193 5.2941 5.2606 5.2350 5.2147 5.1798 5.1436 5.1136 5.0860 5.0565
 5.0228 4.9907 4.9613 4.9323 4.9011 4.8693 4.8338 4.7988 4.7702 4.7680
 4.7906 4.8029 4.8106 4.8299 4.8435 4.8440 4.8369 4.8339 4.8327 4.8272
 4.8251 4.8368 4.8365 4.8108 4.7909 4.7923 4.7914 4.7957 4.8180 4.8498
 4.8875 4.9370 4.9938 5.0521 5.1085 5.1504 5.1809 5.2219 5.2770 5.3474
 5.4028 5.4378 5.4632 5.4906 5.5280 5.5513 5.5596 5.5746 5.5815 5.5751
 5.5651 5.5413 5.5069 5.4796 5.4475 5.4119 5.3885 5.3571 5.3190 5.2927
 5.2762 5.2656 5.2498 5.2242 5.2076 5.2073 5.2165 5.2405 5.2692 5.2856
 5.2982 5.3101 5.3273 5.3364 5.3354 5.3514 5.3743 5.3805 5.3768 5.3753
 5.3662 5.3521 5.3634 5.3883 5.4046 5.4095 5.4030 5.3955 5.3843 5.3613
 5.3426 5.3328 5.3283 5.3233 5.3208 5.3177 5.2899 5.2561 5.2338 5.1982
 5.1497 5.1011 5.0685 5.0683 5.0856 5.1071 5.1383 5.1797 5.2293 5.2840
 5.3363 5.3898 5.4354 5.4700 5.4963 5.5216 5.5656 5.6251 5.6836 5.7452
 5.8012 5.8378 5.8616 5.8863 5.9143 5.9535 6.0101 6.0654 6.1107 6.1773
 6.2517 6.3150 6.3527 6.3541 6.3289 6.3042 6.2816 6.2617 6.2591 6.2391
 6.1919 6.1346 6.0854 6.0361 5.9755 5.9209 5.8648 5.8050 5.7360 5.6560
 5.5690 5.4922 5.4319 5.3776 5.3303 5.2944 5.2735 5.2561 5.2468 5.2497
 5.2548 5.2655 5.2853 5.3230 5.3718 5.4221 5.4749 5.5219 5.5643 5.6079
 5.6664 5.7403 5.8010 5.8406 5.8575 5.8653 5.8641 5.8527 5.8272 5.8041
 5.7876 5.7733 5.7588 5.7349 5.7139 5.7236 5.7489 5.7538 5.7456 5.7264
 5.7047 5.6829 5.6538 5.6211 5.6038 5.6075 5.6059 5.5938 5.5710 5.5234
 5.4735 5.4493 5.4509 5.4741 5.5020 5.5108 5.5159 5.5427 5.5794 5.6060
 5.6356 5.6723 5.6947 5.6904 5.6771 5.6582 5.6431 5.6441 5.6390 5.6266
 5.6096 5.5942 5.5868 5.5802 5.5931 5.6347 5.6789 5.7098 5.7231 5.7156
 5.6995 5.6831 5.6632 5.6497 5.6265 5.5840 5.5381 5.5009 5.4638 5.4194
 5.3642 5.3075 5.2683 5.2440 5.2426 5.2631 5.3021 5.3659 5.4371 5.4867
 5.5112 5.5240 5.5411 5.5782 5.6336 5.6940 5.7567 5.8364 5.9278 6.0082
 6.0796 6.1401 6.1800 6.2228 6.2855 6.3491 6.3869 6.3915 6.3811 6.3621
 6.3367 6.3266 6.3412 6.3647 6.3735 6.3753 6.3730 6.3603 6.3337 6.2954
 6.2530 6.1972 6.1342 6.0725 6.0205 5.9643 5.9058 5.8653 5.8362 5.8063
 5.7804 5.7643 5.7462 5.7200 5.6928 5.6597 5.6254 5.6004 5.5978 5.6111
 5.6286 5.6543 5.7020 5.7607 5.8020 5.8181 5.8153 5.7974 5.7673 5.7479
 5.7288 5.6994 5.6577 5.5950 5.5220 5.4649 5.4326 5.4111 5.3964 5.3988
 5.4084 5.4172 5.4382 5.4635 5.4821 5.5111 5.5641 5.6465 5.7371 5.8298
 5.9136 5.9813 6.0374 6.0849 6.1280 6.1623 6.1883 6.2040 6.2112 6.2247
 6.2452 6.2710 6.2849 6.2709 6.2636 6.2981 6.3793 6.4917 6.6024 6.7064
 6.7970 6.8705 6.9161 6.9264 6.9079 6.8783 6.8333 6.7750 6.7165 6.6653
 6.6246 6.5803 6.5193 6.4281 6.3192 6.2221 6.1428 6.0757 6.0279 5.9835
 5.9230 5.8502 5.7743 5.6911 5.6073 5.5478 5.5230 5.5137 5.5068 5.5034
 5.4997 5.4901 5.4964 5.5353 5.5814 5.6107 5.5979 5.5650 5.5346 5.4953
 5.4619 5.4427 5.4356 5.4500 5.4839 5.5228 5.5471 5.5436 5.5339 5.5415
 5.5720 5.6045 5.6256 5.6360 5.6476 5.6786 5.7254 5.7660 5.7914 5.8155
 5.8577 5.9243 6.0048 6.0765 6.1472 6.2417 6.3513 6.4523 6.5416 6.6194
 6.6706 6.6911 6.7041 6.7174 6.7149 6.6897 6.6447 6.5862 6.5258 6.4849
 6.4723 6.4723 6.4649 6.4432 6.4246 6.4240 6.4333 6.4419 6.4517 6.4520
 6.4523 6.4426 6.4044 6.3468 6.2901 6.2510 6.2225 6.2011 6.1843 6.1646
 6.1494 6.1323 6.1189 6.1158 6.1011 6.0824 6.0699 6.0728 6.0991 6.1390
 6.1695 6.1695 6.1470 6.1116 6.0719 6.0527 6.0573 6.0755 6.1100 6.1503
 6.1488 6.0982 6.0194 5.9198 5.8153 5.7281 5.6832 5.6550 5.6367 5.6559
 5.7067 5.7607 5.7922 5.7991 5.7790 5.7471 5.7315 5.7385 5.7523 5.7881
 5.8589 5.9337 5.9652 5.9598 5.9534 5.9491 5.9266 5.8952 5.8987 5.9552
 6.0336 6.0953 6.1421 6.1963 6.2608 6.3094 6.3207 6.2921 6.2335 6.1729
 6.1394 6.1471 6.1781 6.2321 6.3135 6.3916 6.4390 6.4585 6.4599 6.4674
 6.5158 6.5971 6.6604 6.6662 6.6055 6.5162 6.4480 6.3957 6.3170 6.2351
 6.1843 6.1764 6.2015 6.2206 6.2183 6.1891 6.1617 6.1875 6.2762 6.4062
 6.5196 6.5421 6.4765 6.3869 6.3068 6.2206 6.1282 6.0534 5.9983 5.9552
 5.9150 5.8652 5.8174 5.7822 5.7498 5.7220 5.7138 5.7133 5.7245 5.7606
 5.8059 5.8475 5.9069 5.9933 6.0627 6.0934 6.1205 6.1505 6.1767 6.2010
 6.2211 6.2328 6.2483 6.2836 6.3165 6.3307 6.3356 6.3356 6.3218 6.3088
 6.3140 6.3362 6.3640 6.3891 6.4039 6.3990 6.3668 6.3180 6.2784 6.2531
 6.2341 6.2059 6.1652 6.1248 6.0972 6.0936 6.1020 6.0935 6.0830 6.0998
 6.1418 6.1722 6.1784 6.2077 6.2702 6.3416 6.4124 6.4813 6.5506 6.6022
 6.6223 6.5984 6.5496 6.5219 6.5195 6.5006 6.4492 6.3822 6.3102 6.2475
 6.2145 6.2118 6.2271 6.2563 6.3022 6.3560 6.3793 6.3582 6.3425 6.3521
 6.3793 6.4268 6.4753 6.4835 6.4502 6.4077 6.3661 6.3194 6.2695 6.2515
 6.2485 6.2248 6.1874 6.1741 6.1721 6.1729 6.2033 6.2351 6.2668 6.2975
 6.3081 6.3080 6.3034 6.2555 6.2075 6.2578 6.3911 6.5182 6.6263 6.7388
 6.8529 6.9851 7.0947 7.1173 7.0541 6.9223 6.7612 6.6357 6.5401 6.4528
 6.3956 6.3767 6.3935 6.4297 6.4265 6.3805 6.3662 6.3940 6.4116 6.3924
 6.3824 6.4000 6.4006 6.3558 6.2631 6.1522 6.0394 5.9215 5.8096 5.7362
 5.7054 5.6812 5.6456 5.6244 5.6497 5.7132 5.7879 5.8324 5.8571 5.8962
 5.9285 5.9264 5.9025 5.8754 5.8594 5.8739 5.8975 5.8996 5.8766 5.8137
 5.7471 5.7129 5.7072 5.7139 5.7188 5.7212 5.7145 5.7052 5.7012 5.6880
 5.6658 5.6940 5.7924 5.9028 5.9846 6.0314 6.0542 6.0620 6.0971 6.1771
 6.2690 6.3432 6.4235 6.5311 6.6449 6.7426 6.7476 6.6644 6.5871 6.5703
 6.6024 6.6442 6.6908 6.7584 6.8127 6.7787 6.6451 6.5097 6.4387 6.3741
 6.2793 6.2094 6.1845 6.1489 6.0658 5.9910 5.9338 5.8936 5.8708 5.8185
 5.7575 5.7486 5.7736 5.7965 5.8077 5.8131 5.8241 5.8172 5.8368 5.8531
 5.8108 5.7533 5.7334 5.7420 5.7315 5.6942 5.7117 5.8122 5.9602 6.1149
 6.2068 6.2489 6.3237 6.5019 6.6604 6.7572 6.8078 6.7896 6.7779 6.8490
 6.9191 6.9303 6.9472 7.0362 7.1684 7.2361 7.2174 7.1252 6.9777 6.8564
 6.7728 6.6597 6.5189 6.3404 6.1615 6.0243 5.9427 5.9082 5.8860 5.8553
 5.8280 5.8225 5.8183 5.8628 5.9626 6.0408 6.1188 6.2358 6.3131 6.3245
 6.3692 6.4833 6.6073 6.6903 6.7749 6.8989 7.0346 7.1235 7.1389 7.0961
 7.0941 7.1028 7.0000 6.8909 6.8942 6.9748 7.0449 7.0176 6.8978 6.8092
 6.7785 6.7749 6.8084 6.8609 6.8639 6.7924 6.7424 6.7913 6.8665 6.8444
 6.7558 6.6988 6.6736 6.6233 6.5849 6.5443 6.5025 6.4920 6.4833 6.4203
 6.3705 6.3905 6.4050 6.3650 6.2924 6.1749 6.1079 6.0797 6.0342 5.9232
 5.8336 5.7965 5.8033 5.8136 5.7953 5.7534 5.7127 5.6775 5.6402 5.5919
 5.5419 5.5613 5.6300 5.6812 5.7103 5.6965 5.6806 5.6300 5.5551 5.5355
 5.5554 5.5776 5.5662 5.5668 5.6365 5.7237 5.7504 5.7491 5.7305 5.7486
 5.8475 6.0294 6.2193 6.3426 6.4014 6.4508 6.5022 6.4702 6.4091 6.3640
 6.3070 6.2533 6.1904 6.1271 6.1058 6.0783 6.0736 6.0142 5.9561 5.9754
 6.0814 6.2681 6.4831 6.7257 6.8000 6.6104 6.4271 6.5006 6.7341 6.9710
 7.1362 7.2607 7.1848 6.9074 6.6868 6.5926 6.4552 6.2807 6.1876 6.1178
 5.9638 5.8184 5.7773 5.8085 5.8317 5.8655 5.8834 5.8311 5.7928 5.8725
 5.9632 6.0029 5.9795 5.8691 5.7112 5.5792 5.5177 5.5206 5.4283 5.2562
 5.1473 5.1456 5.1788 5.1783 5.1398 5.1356 5.1651 5.1366 5.0807 5.0838
 5.1447 5.1793 5.1551 5.1300 5.1705 5.2688 5.3606 5.3799 5.4340 5.6009
 5.8117 5.8940 5.9027 6.0186 6.2723 6.5424 6.5679 6.3799 6.3802 6.5856
 6.8321 7.1574 7.4149 7.4343 7.4770 7.4909 7.4205 7.3182 7.1546 7.0486
 6.9700 6.8267 6.6825 6.6552 6.6611 6.6644 6.6601 6.5105 6.2857 6.1558
 6.1736 6.2791 6.3629 6.4511 6.5669 6.6302 6.6270 6.6416 6.6761 6.6159
 6.4485 6.2703 6.1242 6.0487 6.0537 6.0680 6.0952 6.1874 6.2439 6.3666
 6.6453 6.9338 7.1446 7.1587 7.0494 7.0944 7.2273 7.1859 7.0328 6.8523
 6.6830 6.6280 6.6775 6.7331 6.6520 6.5157 6.4036 6.2113 6.0816 6.0486
 5.9763 5.8799 5.8024 5.7201 5.6452 5.6064 5.5738 5.4605 5.3938 5.4212
 5.5297 5.6282 5.5884 5.5076 5.5132 5.5633 5.5507 5.4997 5.4638 5.4995
 5.5254 5.4807 5.4231 5.4709 5.6274 5.6890 5.7787 5.9863 6.1371 6.2169
 6.3010 6.3432 6.3210 6.4011 6.4731 6.5957 6.8613 7.1234 7.2439 7.3037
 7.3099 7.3148 7.5146 7.8631 7.9987 7.8884 7.8214 7.8865 7.8586 7.7074
 7.4749 7.3262 7.1846 6.8821 6.5844 6.3419 6.1618 6.0600 5.9351 5.7651
 5.6834 5.7173 5.6548 5.5794 5.6826 5.8418 5.9255 5.9899 6.0554 6.0618
 6.0433 6.0358 6.0400 6.0120 5.9572 6.0049 6.1246 6.2196 6.1965 6.1223
 6.0801 5.9964 5.7714 5.6343 5.5622 5.4617 5.3394 5.2092 5.1070 5.0416
 4.9848 4.9862 5.0499 5.1221 5.1834 5.2018 5.1347 5.0427 5.0025 5.0390
 5.1165 5.1792 5.1854 5.1179 5.0854 5.0555 5.0441 5.1316 5.2153 5.2253
 5.1681 5.1282 5.1069 5.1099 5.1264 5.1720 5.2887 5.4127 5.4672 5.5162
 5.6829 5.8217 5.8234 5.7146 5.6408 5.6489 5.5767 5.4618 5.4327 5.4807
 5.5454 5.6676 5.8234 5.8949 5.8873 5.7878 5.6294 5.6130 5.7733 5.9007
 5.9542 5.9057 5.8219 5.8361 5.8798 5.9997 6.1490 6.1768 6.1608 6.1396
 6.0045 5.7945 5.6172 5.5565 5.5349 5.4892 5.5124 5.5766 5.5782 5.6275
 5.8458 6.0830 6.1993 6.1688 6.1322 6.0669 6.0456 6.1591 6.3318 6.3752
 6.3033 6.3367 6.3796 6.3258 6.2132 6.0897 5.9978 5.9236 5.9515 6.1193
 6.2658 6.3171 6.3031 6.2724 6.2168 6.1751 6.1946 6.1494 6.0446 6.0135
 6.0720 6.2441 6.4822 6.5637 6.4283 6.3643 6.4270 6.3987 6.2491 6.1596
 6.0712 5.9613 5.9315 5.8675 5.8024 5.7788 5.7637 5.8416 5.9439 5.9382
 5.9074 6.0667 6.2851 6.4398 6.5565 6.6638 6.6205 6.5801 6.5402 6.3531
 6.2183 6.2016 6.2149 6.2624 6.2894 6.2748 6.2932 6.2448 6.1224 6.0958
 6.0627 6.0410 6.0010 5.9951 6.0315 5.9485 5.8921 5.8881 5.8381 5.7896
 5.9902 6.2852 6.2948 6.1099 6.1264 6.4082 6.5124 6.3973 6.3359 6.3028
 6.2317 6.2964 6.4802 6.4991 6.4124 6.3896 6.4968 6.6905 6.7535 6.4514
 6.2497 6.2901 6.4234 6.6041 6.8301 6.9507 6.8599 6.7602 6.7249 6.6683
 6.5803 6.5471 6.5277 6.4149 6.2167 6.0117 5.8822 5.7605 5.6784 5.6612
 5.5863 5.4574 5.3714 5.4022 5.5274 5.5618 5.5425 5.5030 5.2928 5.1509
 5.1236 5.0345 4.9102 4.8428 4.8815 4.8651 4.7084 4.5785 4.5819 4.5822
 4.5684 4.6313 4.7083 4.7210 4.6724 4.6224 4.6399 4.6485 4.5864 4.5276
 4.5044 4.4957 4.5700 4.7585 4.9505 5.1468 5.4896 5.7328 5.6464 5.5125
 5.6341 5.8793 6.0336 6.1892 6.3693 6.3546 6.2064 6.0303 5.9055 5.9176
 6.0953 6.3062 6.3290 6.1255 6.0883 6.2618 6.4030 6.5126 6.4477 6.2134
 6.0990 6.0961 6.0397 5.9911 6.0523 6.0592 5.9031 5.6981 5.5013 5.3404
 5.3224 5.3339 5.3483 5.3747 5.4027 5.3721 5.2456 5.1373 4.9892 4.7947
 4.7065 4.7712 4.7157 4.6055 4.5493 4.4656 4.4201 4.4614 4.4740 4.4236
 4.4009 4.3806 4.3732 4.4025 4.4264 4.5274 4.6643 4.8016 5.0600 5.2420
 5.2243 5.2531 5.3934 5.7391 6.0054 6.0277 6.1891 6.2729 6.1757 6.0770
 6.0509 6.1466 6.2240 6.3507 6.4500 6.4623 6.4445 6.2510 5.9559 5.9027
 6.0039 6.0364 6.0210 6.0045 5.9885 5.9371 5.8814 5.8777 5.8688 5.7477
 5.5830 5.4641 5.4291 5.4117 5.3293 5.2060 5.0966 4.9650 4.8317 4.7614
 4.7316 4.7416 4.7386 4.6789 4.6240 4.4988 4.3669 4.3562 4.4848 4.6145
 4.6458 4.6028 4.6039 4.7141 4.8703 4.9911 5.0704 5.1427 5.1675 5.1923
 5.2208 5.3112 5.4296 5.4947 5.5898 5.7185 5.7815 5.7500 5.7236 5.7913
 5.9468 6.0562 5.9961 5.9746 6.0097 6.0668 6.0621 5.9327 5.8304 5.7111
 5.5174 5.3958 5.4789 5.5094 5.4928 5.5432 5.5578 5.5935 5.6911 5.8203
 6.1088 6.5736 6.9727 7.1354 7.0522 7.1845 7.6364 7.6439 7.3127 7.2543
 7.3161 7.3334 7.3076 7.0336 6.5816 6.3112 6.2282 6.1382 6.0936 6.1645
 6.2226 6.2227 6.1851 6.1073 5.9419 5.8045 5.7552 5.7682 5.8773 5.9292
 5.8159 5.6201 5.5599 5.5809 5.5486 5.4955 5.4964 5.3891 5.2657 5.2490
 5.3292 5.3144 5.2458 5.1434 5.0218 4.8661 4.6926 4.5598 4.4855 4.4302
 4.3943 4.3488 4.3151 4.2884 4.2661 4.2233 4.1371 4.1138 4.1390 4.1318
 4.1201 4.1395 4.1593 4.1329 4.0384 3.9669 3.9177 3.9428 4.0099 4.0059
 4.0244 4.0990 4.1494 4.2526 4.3833 4.5669 4.9217 5.3891 5.7178 5.8755
 6.0799 6.2581 6.3294 6.3791 6.6156 7.0205 7.2691 7.0942 6.7073 6.4588
 6.6020 6.9226 7.1558 7.3127 7.2935 7.0660 6.8367 6.7341 6.6276 6.3755
 6.0989 5.9414 5.9792 6.1282 6.1276 5.9664 6.0057 6.0452 5.9506 5.8172
 5.5447 5.2151 4.9509 4.8354 4.7284 4.5068 4.3571 4.3552 4.4364 4.4897
 4.4874 4.3608 4.2672 4.3147 4.3853 4.3986 4.4012 4.4007 4.4303 4.4089
 4.3048 4.1356 4.0308 3.9847 3.9229 3.8412 3.7767 3.7731 3.7955 3.8333
 3.8403 3.7536 3.6465 3.5701 3.5498 3.5551 3.6380 3.8409 4.0480 4.0650
 4.0577 4.0097 3.9068 3.9001 3.9284 3.9702 4.0090 3.9940 3.9900 4.0353
 4.1153 4.2319 4.3389 4.3550 4.3285 4.3355 4.3316 4.3564 4.3193 4.2558
 4.2593 4.3083 4.3848 4.5481 4.6458 4.5751 4.5653 4.5987 4.6066 4.6357
 4.5856 4.5120 4.4940 4.5365 4.5157 4.5073 4.6763 4.8849 4.9843 5.0490
 5.1869 5.4547 5.5926 5.4613 5.3759 5.4732 5.7124 6.1154 6.5786 6.6327
 6.5427 6.7972 7.0584 6.9783 6.8115 6.5837 6.3056 6.1787 6.1207 6.0081
 5.8278 5.6155 5.4658 5.4909 5.4802 5.3739 5.3730 5.3650 5.2587 5.2123
 5.1374 4.9708 4.9300 4.9662 4.9061 4.7961 4.7516 4.7979 4.9234 4.8991
 4.7001 4.4782 4.2987 4.2587 4.2027 4.1079 4.1023 4.1240 4.1259 4.0726
 4.0261 4.0465 4.1127 4.1297 4.2003 4.3411 4.4080 4.3656 4.3607 4.4150
 4.4793 4.6317 4.7424 4.8276 5.0271 5.2722 5.4988 5.7650 6.0745 6.1898
 6.2374 6.4036 6.6912 7.1017 7.5214 7.5386 7.3728 7.4187 7.3938 7.2947
 7.3780 7.3709 7.1991 6.7884 6.4240 6.2533 5.9859 5.6119 5.3137 5.2090
 5.2235 5.3426 5.4652 5.4652 5.2761 5.0154 4.9130 4.8439 4.7186 4.7280
 4.7510 4.7097 4.7082 4.7020 4.5324 4.3266 4.2474 4.2990 4.2976 4.1824
 4.0580 4.0121 3.9809 3.9483 3.9459 3.9616 4.0005 4.1044 4.2065 4.3152
 4.4910 4.5237 4.5388 4.6206 4.6497 4.6170 4.5622 4.5766 4.6131 4.7162
 4.7798 4.6812 4.5193 4.4361 4.4285 4.4632 4.4463 4.4441 4.4778 4.4007
 4.3100 4.3468 4.4436 4.3743 4.2038 4.1033 4.0780 4.0667 4.1569 4.3070
 4.4360 4.5331 4.5208 4.5674 4.6978 4.8182 4.8832 4.7416 4.6288 4.6024
 4.5047 4.4711 4.5403 4.6105 4.6724 4.8045 4.8206 4.8017 4.8154 4.8375
 4.8319 4.6654 4.5078 4.4117 4.2499 4.1851 4.2474 4.3255 4.3853 4.5286
 4.6155 4.6521 4.7589 4.7409 4.5970 4.5730 4.5277 4.4076 4.3449 4.1768
 3.9658 3.8899 3.8643 3.8325 3.8596 3.7867 3.6847 3.7214 3.7325 3.6516
 3.6823 3.7624 3.7672 3.8113 3.9092 4.1726 4.5071 4.6859 4.7994 4.8075
 4.7170 4.6785 4.6140 4.4774 4.4226 4.4844 4.6024 4.6506 4.5345 4.3522
 4.2823 4.2651 4.2454 4.2334 4.2411 4.1200 4.0051 3.9885 4.0031 4.0418
 4.1004 4.1788 4.3348 4.3654 4.2889 4.3230 4.3869 4.3619 4.2541 4.1759
 4.0710 3.9349 3.9365 3.9605 3.8729 3.7213 3.5458 3.3907 3.3211 3.3176
 3.3090 3.3215 3.3644 3.4190 3.4942 3.5382 3.6159 3.7517 3.7638 3.8419
 4.0390 4.2192 4.4323 4.6183 4.7647 4.8938 4.9574 4.9156 4.8880 4.8765
 4.8676 4.9440 5.0714 5.1544 5.1321 5.2243 5.3406 5.1757 4.9117 4.7305
 4.6140 4.5637 4.6605 4.7944 4.8848 4.9134 4.8789 4.7810 4.6288 4.5695
 4.5522 4.5003 4.4172 4.2418 4.0307 3.8687 3.6916 3.6276 3.7351 3.9130
 4.0086 3.9152 3.8717 4.0596 4.2573 4.3204 4.2177 4.1584 4.2487 4.2372
 4.1687 4.1071 4.1453 4.3109 4.3795 4.3486 4.3989 4.5408 4.5950 4.6128
 4.6595 4.7097 4.8119 4.9276 5.1045 5.2790 5.1731 4.9182 4.7048 4.6681
 4.6377 4.6416 4.7241 4.6860 4.4863 4.2764 4.2023 4.2568 4.3972 4.4782
 4.4721 4.3661 4.1992 4.1356 4.1344 4.0545 3.9966 3.9530 3.8863 3.8486
 3.7614 3.6829 3.6698 3.6578 3.6195 3.6068 3.6848 3.7395 3.7223 3.7139
 3.7073 3.7109 3.7291 3.7219 3.7669 3.8518 3.9088 4.0532 4.3065 4.3830
 4.4237 4.8959 5.3759 5.5879 5.8402 5.9474 5.8117 5.5518 5.3485 5.3809
 5.5290 5.6282 5.6504 5.6387 5.5649 5.5156 5.4535 5.3269 5.1307 4.9682
 4.8297 4.6734 4.5600 4.5312 4.5753 4.5984 4.5792 4.4681 4.3276 4.2167
 4.1542 4.2539 4.4147 4.4625 4.3658 4.3351 4.2865 4.1947 4.1644 4.1583
 4.1359 3.9734 3.8606 3.8722 3.8948 3.8507 3.7824 3.7020 3.6158 3.5611
 3.5443 3.4531 3.2994 3.1968 3.1013 2.9803 2.9044 2.8619 2.8600 2.8873
 2.8622 2.8236 2.7753 2.7542 2.8208 2.8884 2.9340 2.8934 2.8629 2.9504
 3.0666 3.2359 3.3461 3.3953 3.4238 3.4985 3.5960 3.7533 4.0180 4.2016
 4.1402 4.0808 4.2049 4.4323 4.6145 4.6304 4.5738 4.4203 4.3545 4.3031
 4.1655 4.1043 4.0390 3.9809 3.9902 4.0729 4.1106 3.9754 3.8461 3.8299
 4.0293 4.2123 4.1806 4.1834 4.1876 4.1233 4.2084 4.2566 4.0406 3.8692
 3.7916 3.5284 3.3101 3.2943 3.4175 3.5168 3.5020 3.4259 3.3750 3.3474
 3.3630 3.4296 3.4551 3.4102 3.3488 3.3191 3.3012 3.3302 3.3968 3.3067
 3.2034 3.1689 3.2224 3.2710 3.1688 3.0343 2.9645 2.9324 2.9257 2.9123
 2.8725 2.9054 3.0405 3.1621 3.2406 3.2750 3.3092 3.3269 3.2634 3.2029
 3.1979 3.2948 3.4846 3.5777 3.5191 3.4442 3.3873 3.2899 3.2156 3.1970
 3.1539 3.1168 3.0860 3.0216 3.0415 3.1465 3.2053 3.1451 2.9865 2.8868
 2.9298 3.0167 3.1013 3.1432 3.1233 3.0576 3.0245 3.1359 3.2849 3.3392
 3.3614 3.4138 3.5270 3.5772 3.5004 3.4124 3.3860 3.3650 3.3265 3.3428
 3.3910 3.3620 3.2876 3.2001 3.1149 3.0862 3.1181 3.1305 3.1914 3.2781
 3.3711 3.3991 3.3024 3.2898 3.3387 3.2635 3.2100 3.2603 3.3187 3.4704
 3.6639 3.6117 3.5675 3.6872 3.7536 3.8162 4.1013 4.4760 4.5623 4.5249
 4.5859 4.9199 5.3285 5.4254 5.2404 4.9942 4.9655 5.0117 4.9326 4.7633
 4.6697 4.6192 4.4782 4.3672 4.4115 4.5634 4.5435 4.4381 4.5976 4.8866
 5.0225 4.8533 4.6354 4.6355 4.6914 4.5605 4.3851 4.3616 4.4366 4.3804
 4.2481 4.2204 4.2947 4.3133 4.2082 4.1333 3.9783 3.7444 3.5591 3.4547
 3.5604 3.6892 3.7556 3.7921 3.6884 3.4941 3.3713 3.4388 3.5793 3.6157
 3.5606 3.4940 3.4501 3.3491 3.1920 3.1482 3.3016 3.4530 3.4136 3.2304
 3.1553 3.2020 3.3044 3.2865 3.1652 3.0869 3.0585 3.0939 3.1474 3.1515
 3.1797 3.2053 3.1440 3.0735 3.0736 3.1339 3.2416 3.2746 3.2442 3.2260
 3.1681 3.0937 3.0534 3.1365 3.2932 3.3455 3.2309 3.0977 3.0250 2.9843
 2.9923 2.9999 3.0105 2.9844 3.0397 3.1092 3.0269 2.9718 3.0976 3.2179
 3.2389 3.2689 3.2472 3.1830 3.2409 3.2830 3.2713 3.3222 3.4020 3.4029
 3.4370 3.6452 3.9259 4.0486 3.9776 3.9961 4.0925 4.0950 4.0588 4.1137
 4.2492 4.3161 4.2355 4.1464 3.9839 3.8199 3.7155 3.5876 3.4697 3.4095
 3.4139 3.4066 3.4394 3.4985 3.4914 3.5389 3.5381 3.4228 3.3518 3.3042
 3.3100 3.3402 3.2973 3.1891 3.1626 3.2632 3.3789 3.4384 3.4131 3.4408
 3.6916 3.8811 3.8043 3.5763 3.4687 3.5073 3.4995 3.4314 3.3268 3.2597
 3.2676 3.2350 3.2273 3.1838 3.0594 2.9696 2.9492 2.9523 2.9034 2.8449
 2.7595 2.6934 2.6827 2.7624 2.8136 2.7772 2.7274 2.6898 2.7047 2.6740
 2.5901 2.5389 2.5028 2.4582 2.3922 2.3014 2.2028 2.1940 2.2823 2.3838
 2.3763 2.3333 2.3131 2.2942 2.2405 2.2094 2.1968 2.1811 2.2262 2.2780
 2.2829 2.2611 2.2412 2.2882 2.3682 2.4416 2.4682 2.4488 2.3967 2.3976
 2.4785 2.5055 2.4999 2.5780 2.6511 2.6684 2.6657 2.5949 2.5421 2.5527
 2.5934 2.6932 2.7458 2.7289 2.6583 2.5986 2.6415 2.7604 2.7461 2.6887
 2.6720 2.6529 2.6077 2.5522 2.5483 2.5331 2.5843 2.7094 2.7180 2.6671
 2.6948 2.7243 2.6984 2.6936 2.7821 2.8119 2.8102 2.8574 2.8896 2.8911
 2.8026 2.6767 2.6054 2.4995 2.3851 2.3400 2.3492 2.4275 2.4684 2.4564
 2.4540 2.4894 2.5580 2.6003 2.5724 2.4718 2.3614 2.3173 2.3232 2.3437
 2.4057 2.4409 2.4320 2.4371 2.4650 2.5203 2.5979 2.6072 2.6243 2.7308
 2.8046 2.8406 2.8582 2.8827 2.9155 2.9928 3.0587 3.1239 3.2053 3.2352
 3.3949 3.7178 4.0066 4.0432 4.0413 4.0197 4.0282 4.2096 4.3699 4.4088
 4.5169 4.8080 4.9637 4.8552 4.6003 4.2561 4.0418 3.9063 3.7908 3.7507
 3.8343 3.9490 3.9195 3.8897 3.9589 3.8107 3.6119 3.5137 3.5031 3.5541
 3.4996 3.3953 3.2952 3.2346 3.1864 3.1096 2.9860 2.9096 3.0138 3.1688
 3.2991 3.2242 3.0689 2.9611 2.8977 2.8353 2.8138 2.7521 2.6141 2.5507
 2.5853 2.5543 2.5048 2.4902 2.4238 2.3375 2.2719 2.2035 2.1414 2.1156
 2.1193 2.1731 2.2195 2.1990 2.1587 2.0908 2.0861 2.1805 2.2887 2.3181
 2.3006 2.3659 2.4939 2.5913 2.6242 2.5724 2.5506 2.5627 2.5370 2.5212
 2.5042 2.4630 2.3986 2.3379 2.2573 2.2285 2.2920 2.3581 2.4074 2.4396
 2.4287 2.4082 2.3869 2.3630 2.3852 2.4693 2.5655 2.6244 2.6524 2.7153
 2.7897 2.7836 2.8262 2.8456 2.8173 2.8812 2.9309 2.9429 2.9340 2.8760
 2.8210 2.8022 2.7719 2.8473 2.9685 3.0355 3.0680 3.1175 3.0973 3.0108
 3.0529 3.2931 3.4218 3.3236 3.2806 3.3260 3.4004 3.3782 3.3162 3.4267
 3.6057 3.5601 3.3238 3.2008 3.1651 3.0916 3.0460 3.0271 3.0586 3.0575
 2.9564 2.8795 2.8343 2.8919 3.0266 3.1471 3.2075 3.1337 3.0707 3.1173
 3.2023 3.2608 3.1460 3.0767 3.1380 3.1253 3.0895 3.0444 3.0631 3.1427
 3.1806 3.1620 3.1148 3.0722 3.0280 3.0947 3.2042 3.1745 3.1377 3.2004
 3.2535 3.0832 2.8606 2.7678 2.7270 2.6917 2.5743 2.5002 2.5004 2.4912
 2.4418 2.4047 2.3727 2.3329 2.2661 2.1924 2.1653 2.1835 2.1397 2.0770
 2.0648 2.0505 2.0202 2.0361 2.1145 2.1713 2.1458 2.0515 1.9660 1.8849
 1.7950 1.7480 1.7465 1.7701 1.8166 1.8284 1.7927 1.7723 1.7545 1.7469
 1.7789 1.7739 1.7162 1.6742 1.6644 1.6695 1.6675 1.7059 1.6920 1.6207
 1.5784 1.5543 1.5314 1.5175 1.4685 1.4323 1.4630 1.4892 1.4846 1.4845
 1.4764 1.4797 1.4797 1.5088 1.5560 1.5393 1.4731 1.4130 1.4071 1.4566
 1.5219 1.5523 1.5208 1.5150 1.5560 1.6006 1.5971 1.5588 1.5789 1.6461
 1.6389 1.6133 1.6297 1.6554 1.7315 1.8473 1.9255 1.9330 1.9157 1.8863
 1.8062 1.7230 1.6961 1.6958 1.7249 1.7701 1.8027 1.8139 1.8130 1.7972
 1.8252 1.8678 1.9002 1.9507 2.0343 2.0880 2.1307 2.1536 2.1505 2.1995
 2.2525 2.2805 2.3872 2.4870 2.4606 2.4944 2.5588 2.5042 2.4823 2.6097
 2.7364 2.7890 2.8735 2.9962 2.9968 2.8562 2.6067 2.3967 2.3108 2.2745
 2.2580 2.3181 2.3465 2.2166 2.0618 1.9973 1.9802 2.0513 2.1064 2.0567
 2.0114 2.0552 2.0604 2.0277 2.0658 2.1402 2.2123 2.3127 2.4238 2.4973
 2.5631 2.7167 2.8788 2.8938 2.8331 2.8390 2.8662 2.9639 3.1212 3.2777
 3.5118 3.6690 3.5079 3.2187 3.0960 3.0148 2.8870 2.8996 2.9425 2.8906
 2.9086 2.9270 2.8433 2.6901 2.5271 2.4555 2.4036 2.3537 2.2827 2.2151
 2.1505 2.1076 2.0888 2.1094 2.1561 2.1343 2.0675 2.1274 2.1935 2.2075
 2.2250 2.2889 2.3256 2.2617 2.2171 2.1489 2.1120 2.1569 2.1333 2.0437
 2.0419 2.1383 2.1830 2.1186 2.0084 1.9063 1.9096 1.9357 1.9226 1.9160
 1.8746 1.7737 1.7343 1.7936 1.8608 1.9423 1.8883 1.7336 1.6700 1.6748
 1.7449 1.8677 1.8851 1.8258 1.8517 1.9195 1.9742 1.9947 1.9432 1.9120
 1.8859 1.8604 1.9265 2.0705 2.1847 2.2971 2.3985 2.3504 2.1881 2.0522
 2.0302 2.1284 2.2716 2.3253 2.3131 2.3501 2.4484 2.5713 2.6489 2.5800
 2.4335 2.3250 2.3385 2.4144 2.4392 2.3459 2.3030 2.4577 2.7228 2.9183
 2.9222 2.8047 2.6810 2.5736 2.5389 2.5228 2.4978 2.4686 2.4771 2.5419
 2.4902 2.3869 2.3525 2.3556 2.3993 2.4397 2.3818 2.2683 2.2405 2.2890
 2.3246 2.3613 2.4188 2.3786 2.2934 2.2545 2.2739 2.3475 2.3037 2.2878
 2.3586 2.4250 2.5374 2.5610 2.3736 2.2301 2.1362 2.0458 2.0215 2.0303
 2.0455 2.0744 2.1317 2.1728 2.2344 2.2730 2.2247 2.2955 2.3096 2.2178
 2.3549 2.4910 2.3921 2.3339 2.3207 2.3982 2.5825 2.5843 2.3937 2.2463
 2.1595 2.0806 2.0419 2.0475 1.9925 1.9233 1.9729 2.0222 2.0116 1.9181
 1.8167 1.7831 1.7860 1.7848 1.7617 1.7408 1.7543 1.8046 1.8232 1.7848
 1.7510 1.7464 1.6939 1.5837 1.5020 1.4973 1.5473 1.6295 1.6883 1.6634
 1.6277 1.6744 1.6997 1.6342 1.5904 1.5998 1.6125 1.6426 1.6452 1.5875
 1.5369 1.5095 1.5068 1.4885 1.4618 1.4449 1.4628 1.4479 1.4179 1.4073
 1.3769 1.3611 1.3746 1.4145 1.4536 1.4449 1.4461 1.4930 1.4954 1.4740
 1.4536 1.4501 1.4529 1.3884 1.3167 1.3032 1.3322 1.3702 1.3854 1.3815
 1.3735 1.3924 1.4166 1.4133 1.4438 1.4636 1.3882 1.3170 1.2692 1.2280
 1.2385 1.2592 1.2435 1.1794 1.1305 1.1280 1.1465 1.1780 1.2285 1.2451
 1.2502 1.2647 1.2929 1.3001 1.2817 1.2567 1.2175 1.1764 1.1504 1.1749
 1.2345 1.2864 1.3872 1.4412 1.4304 1.4650 1.4968 1.4986 1.4892 1.5396
 1.6149 1.7264 1.8808 1.9849 1.9597 1.9377 1.9595 1.9795 2.0188 1.9511
 1.8116 1.7029 1.6880 1.6714 1.6105 1.5770 1.6440 1.7309 1.7869 1.8167
 1.7876 1.7871 1.8035 1.7570 1.7297 1.7848 1.8451 1.7948 1.7134 1.6511
 1.6569 1.7757 1.8477 1.8112 1.7862 1.8627 1.8974 1.8404 1.8180 1.8263
 1.7722 1.6706 1.5822 1.5523 1.5733 1.5821 1.5749 1.5684 1.5323 1.5287
 1.5448 1.5442 1.5418 1.5319 1.5458 1.5470 1.4993 1.4358 1.3577 1.3129
 1.3126 1.3029 1.2902 1.3205 1.3666 1.4053 1.4351 1.4158 1.3710 1.3443
 1.3257 1.3084 1.3106 1.3198 1.3711 1.4012 1.3469 1.3443 1.3430 1.3477
 1.3424 1.2858 1.2378 1.2547 1.3017 1.3465 1.3497 1.3364 1.3904 1.4578
 1.4591 1.4421 1.4235 1.4085 1.4257 1.4386 1.5078 1.5602 1.4846 1.4641
 1.5489 1.4996 1.3237 1.2580 1.2563 1.2470 1.2421 1.2911 1.3453 1.3383
 1.3336 1.3550 1.3276 1.3275 1.4380 1.4970 1.4459 1.4117 1.4140 1.4729
 1.5539 1.5712 1.5286 1.5353 1.5605 1.6013 1.6444 1.6521 1.6934 1.7331
 1.8297 1.9717 2.0994 2.2258 2.2847 2.2007 2.1035 2.1213 2.1972 2.2450
 2.2774 2.2920 2.2960 2.3434 2.3459 2.2763 2.2139 2.1246 2.0348 1.9698
 1.9555 2.0054 2.0324 2.0473 2.1017 2.1383 2.0498 1.9498 1.9320 1.9811
 2.0688 2.1236 2.1242 2.0969 2.0607 2.0761 2.0870 2.1130 2.1355 2.0653
 1.9799 1.8811 1.8129 1.8122 1.7739 1.6740 1.6107 1.5633 1.4824 1.4484
 1.4836 1.5324 1.5566 1.5915 1.6378 1.6753 1.7016 1.6748 1.6823 1.6961
 1.6872 1.7116 1.7309 1.7124 1.7444 1.7728 1.7799 1.7352 1.6996 1.6594
 1.5904 1.5963 1.6343 1.6059 1.5742 1.5227 1.4922 1.5067 1.5061 1.4763
 1.4257 1.3948 1.4065 1.4248 1.4128 1.3956 1.3868 1.3945 1.4129 1.4124
 1.4130 1.4245 1.4261 1.4096 1.4044 1.3452 1.2504 1.2143 1.2438 1.2732
 1.2861 1.3130 1.3656 1.3675 1.3731 1.4022 1.3982 1.3904 1.4347 1.5109
 1.5423 1.5532 1.5862 1.5862 1.5453 1.5651 1.5841 1.4894 1.3782 1.3488
 1.3576 1.3485 1.3489 1.3544 1.3827 1.4161 1.4027 1.4007 1.4146 1.4553
 1.4825 1.4691 1.4633 1.4386 1.3838 1.3813 1.4308 1.4569 1.4871 1.5323
 1.5154 1.4935 1.4639 1.4468 1.4456 1.4404 1.4517 1.4572 1.4650 1.4980
 1.5631 1.5565 1.4941 1.5332 1.5852 1.5442 1.5390 1.5687 1.6105 1.5620
 1.4719 1.4694 1.4735 1.4428 1.4074 1.3859 1.3590 1.3501 1.3718 1.4340
 1.4999 1.5134 1.4532 1.3745 1.3084 1.2468 1.1719 1.1167 1.1351 1.1648
 1.1623 1.1511 1.1441 1.1462 1.1583 1.2067 1.2825 1.2873 1.2158 1.1464
 1.1169 1.1208 1.1462 1.1793 1.1893 1.1612 1.0870 1.0261 1.0250 1.0558
 1.0415 1.0130 1.0061 1.0108 0.9997 0.9617 0.9088 0.8523 0.8119 0.7656
 0.7211 0.7197 0.7392 0.7514 0.7474 0.7295 0.7298 0.7555 0.7810 0.7876
 0.7647 0.7422 0.7451 0.7403 0.7328 0.7365 0.7620 0.8005 0.8591 0.8943
 0.8946 0.8488 0.8131 0.8353 0.8808 0.8938 0.8593 0.8092 0.7723 0.7497
 0.7492 0.7409 0.7147 0.7046 0.7204 0.7301 0.7315 0.7311 0.7592 0.8029
 0.8096 0.7907 0.7728 0.7615 0.7373 0.7338 0.7529 0.7475 0.7333 0.7632
 0.7818 0.7518 0.7653 0.8204 0.9131 1.0284 1.0994 1.1307 1.0886 1.0222
 1.0296 1.0668 1.1146 1.2113 1.3046 1.3234 1.2947 1.2327 1.1715 1.1403
 1.1321 1.0878 1.0489 1.0596 1.1249 1.1690 1.1503 1.1337 1.2054 1.2855
 1.2817 1.2511 1.2312 1.2623 1.1966 1.0763 0.9950 0.9715 0.9666 0.9503
 0.9769 0.9855 0.9310 0.8893 0.8941 0.9076 0.9126 0.8871 0.8463 0.7937
 0.7551 0.7594 0.7550 0.7361 0.7219 0.6971 0.6727 0.6575 0.6658 0.6823
 0.6975 0.7116 0.7399 0.7574 0.7612 0.7809 0.8053 0.8126 0.8231 0.8634
 0.9168 0.9143 0.8693 0.8705 0.9241 0.9658 1.0371 1.1762 1.2526 1.2239
 1.1983 1.2487 1.2716 1.2143 1.1607 1.1788 1.2745 1.3337 1.2866 1.2825
 1.3796 1.4219 1.3847 1.3813 1.3680 1.3316 1.2913 1.2819 1.2844 1.2924
 1.3265 1.3886 1.4129 1.4133 1.3983 1.3719 1.3797 1.4509 1.5330 1.4900
 1.3831 1.3173 1.3080 1.3504 1.3470 1.3531 1.3834 1.3757 1.3535 1.3172
 1.2739 1.2519 1.2343 1.1874 1.1467 1.1378 1.1751 1.1962 1.1955 1.1788
 1.1197 1.0591 1.0469 1.0686 1.0786 1.0859 1.1340 1.1762 1.1774 1.2025
 1.2437 1.2214 1.2071 1.2575 1.3171 1.3394 1.3703 1.4906 1.6069 1.6172
 1.5711 1.5020 1.4786 1.4009 1.3288 1.2922 1.2613 1.2807 1.2562 1.1829
 1.1424 1.1066 1.0629 1.0601 1.0652 1.0430 1.0466 1.0751 1.0643 1.0669
 1.1084 1.1120 1.0801 1.0430 0.9808 0.9139 0.8757 0.8856 0.8901 0.8951
 0.9272 0.9154 0.8693 0.9067 0.9894 1.0191 1.0153 0.9708 0.9597 1.0986
 1.2743 1.3162 1.2793 1.2263 1.1867 1.1954 1.2260 1.2633 1.2653 1.2698
 1.3316 1.3439 1.2682 1.2179 1.2458 1.2467 1.2093 1.2021 1.2226 1.2658
 1.2704 1.2117 1.1654 1.1225 1.0942 1.0789 1.0750 1.1599 1.2830 1.3185
 1.2475 1.1758 1.1671 1.1565 1.1260 1.1331 1.2129 1.2988 1.3160 1.3183
 1.3471 1.3649 1.3186 1.2428 1.1955 1.1817 1.1499 1.1277 1.1222 1.1146
 1.0998 1.0432 1.0054

Temp = 238.6K  -  Data version 1
Harder, Brault, Johnston and Mount  [JGR, 102, 3861-3880, 1997]
"Temperature Dependent NO2 Cross Sections at High Spectral Resolution"
NO2 cross section [10^-19 cm^2/molecule]
  Data Smoothed with a Gaussian FWHM = 0.1 nm
    Compiled by E.P.Shettle, NRL, Washington, DC

Nvalues  1st Wave  d(wave) last Wave   Temp
          [nm]     [nm]     [nm]       [K]
  4093    345.2            0.05     549.8     238.6

 3.3266 3.3649 3.3815 3.3826 3.3849 3.3957 3.4157 3.3971 3.3871 3.4345
 3.4675 3.4619 3.4662 3.5252 3.6151 3.6673 3.6953 3.7272 3.7516 3.7618
 3.7666 3.8145 3.8527 3.8631 3.9011 3.9528 3.9752 3.9772 4.0043 4.0476
 4.0660 4.0890 4.1140 4.0889 4.0385 4.0060 3.9598 3.8878 3.8155 3.7813
 3.7878 3.8210 3.8281 3.8142 3.8226 3.8440 3.8540 3.8230 3.7824 3.7682
 3.7889 3.8217 3.8417 3.8664 3.9405 4.0353 4.1269 4.2151 4.3668 4.5341
 4.6614 4.7409 4.7937 4.8471 4.9150 4.9438 4.9161 4.8604 4.8274 4.8023
 4.7356 4.6721 4.6065 4.5334 4.4841 4.4233 4.3421 4.2927 4.2296 4.1293
 4.0394 3.9548 3.8804 3.8120 3.7454 3.6835 3.6679 3.6876 3.6968 3.6729
 3.6706 3.6770 3.6854 3.7059 3.7254 3.7303 3.7569 3.8046 3.8330 3.8438
 3.8361 3.8548 3.9050 3.9251 3.9363 3.9910 4.0586 4.1053 4.1195 4.1201
 4.1630 4.2006 4.2221 4.2454 4.2638 4.2816 4.3209 4.3476 4.3580 4.3896
 4.4198 4.4289 4.4137 4.3759 4.3343 4.2985 4.2573 4.2212 4.1867 4.1237
 4.0589 4.0144 3.9950 4.0020 4.0242 4.0519 4.0756 4.1095 4.1806 4.2596
 4.3166 4.3573 4.3777 4.3800 4.3544 4.3171 4.2860 4.2520 4.2056 4.1401
 4.0694 4.0112 3.9576 3.8694 3.7774 3.7486 3.7547 3.7517 3.7405 3.7586
 3.8113 3.8492 3.8742 3.9068 3.9458 4.0008 4.0602 4.1350 4.2179 4.2900
 4.3679 4.4438 4.5095 4.5821 4.6551 4.7302 4.8143 4.9184 5.0190 5.0949
 5.1791 5.2722 5.3361 5.3660 5.3893 5.4252 5.4276 5.3911 5.3703 5.3672
 5.3425 5.2991 5.2609 5.2201 5.1773 5.1220 5.0674 5.0152 4.9574 4.8995
 4.8264 4.7459 4.6837 4.6371 4.5838 4.5370 4.4965 4.4697 4.4627 4.4419
 4.3983 4.3630 4.3456 4.3455 4.3641 4.3697 4.3760 4.4082 4.4435 4.4687
 4.4997 4.5284 4.5587 4.5985 4.6335 4.6644 4.7260 4.8178 4.8885 4.9439
 5.0042 5.0812 5.1496 5.1893 5.2438 5.3358 5.4403 5.5178 5.5581 5.5834
 5.6182 5.6340 5.6194 5.5895 5.5592 5.5382 5.5257 5.5012 5.4401 5.3613
 5.2837 5.2121 5.1766 5.1620 5.1484 5.1325 5.0934 5.0383 5.0000 4.9799
 4.9669 4.9448 4.9270 4.8964 4.8507 4.8124 4.7812 4.7500 4.7275 4.7081
 4.6836 4.6495 4.6217 4.6048 4.5743 4.5280 4.4789 4.4502 4.4555 4.4701
 4.4780 4.4885 4.5097 4.5305 4.5492 4.5653 4.5789 4.5786 4.5674 4.5617
 4.5638 4.5733 4.5757 4.5730 4.5621 4.5528 4.5424 4.5447 4.5673 4.5976
 4.6440 4.7026 4.7625 4.8053 4.8349 4.8631 4.9118 4.9721 5.0314 5.0974
 5.1651 5.2091 5.2201 5.2342 5.2673 5.2952 5.3091 5.3198 5.3279 5.3188
 5.3083 5.2842 5.2366 5.1849 5.1528 5.1241 5.0927 5.0650 5.0315 5.0072
 4.9850 4.9680 4.9517 4.9426 4.9507 4.9594 4.9749 4.9877 5.0006 5.0260
 5.0560 5.0755 5.0870 5.0885 5.0937 5.0985 5.1099 5.1256 5.1299 5.1311
 5.1125 5.0900 5.0899 5.0968 5.1034 5.1164 5.1323 5.1418 5.1238 5.0990
 5.0818 5.0667 5.0587 5.0556 5.0454 5.0216 4.9911 4.9522 4.9183 4.8825
 4.8394 4.7957 4.7708 4.7713 4.7906 4.8262 4.8657 4.9145 4.9716 5.0287
 5.0817 5.1276 5.1783 5.2354 5.2936 5.3376 5.3753 5.4325 5.5100 5.5895
 5.6517 5.6981 5.7180 5.7195 5.7448 5.7988 5.8697 5.9380 5.9972 6.0529
 6.1082 6.1625 6.1950 6.1850 6.1485 6.1044 6.0765 6.0669 6.0452 5.9920
 5.9303 5.8758 5.8155 5.7551 5.7068 5.6585 5.5999 5.5294 5.4476 5.3533
 5.2528 5.1728 5.1106 5.0505 5.0012 4.9674 4.9406 4.9230 4.9259 4.9402
 4.9626 4.9885 5.0220 5.0711 5.1226 5.1678 5.2138 5.2656 5.3198 5.3697
 5.4194 5.4845 5.5596 5.6174 5.6432 5.6485 5.6473 5.6446 5.6301 5.6026
 5.5854 5.5774 5.5666 5.5708 5.5863 5.5887 5.5709 5.5313 5.5081 5.4973
 5.4723 5.4404 5.4186 5.4132 5.4171 5.4255 5.4277 5.4162 5.3853 5.3356
 5.2807 5.2519 5.2519 5.2716 5.2981 5.3196 5.3380 5.3629 5.3948 5.4340
 5.4798 5.5124 5.5176 5.5005 5.4684 5.4370 5.4264 5.4265 5.4192 5.4026
 5.3760 5.3431 5.3193 5.3142 5.3307 5.3699 5.4232 5.4568 5.4660 5.4632
 5.4474 5.4229 5.3983 5.3688 5.3398 5.3017 5.2512 5.2104 5.1725 5.1254
 5.0688 5.0128 4.9755 4.9601 4.9584 4.9773 5.0272 5.1027 5.1828 5.2434
 5.2762 5.2964 5.3250 5.3664 5.4196 5.4873 5.5668 5.6477 5.7280 5.8091
 5.9053 5.9910 6.0484 6.0906 6.1297 6.1804 6.2272 6.2377 6.2249 6.2109
 6.1888 6.1709 6.1804 6.2135 6.2516 6.2778 6.2854 6.2726 6.2446 6.2063
 6.1471 6.0711 5.9984 5.9383 5.8772 5.8057 5.7441 5.7130 5.6892 5.6533
 5.6121 5.5709 5.5453 5.5251 5.4919 5.4501 5.4163 5.4043 5.4136 5.4215
 5.4332 5.4664 5.5237 5.5797 5.6217 5.6396 5.6290 5.5929 5.5558 5.5373
 5.5172 5.4859 5.4317 5.3511 5.2681 5.2093 5.1695 5.1376 5.1289 5.1368
 5.1434 5.1573 5.1785 5.2036 5.2401 5.2865 5.3534 5.4492 5.5632 5.6747
 5.7723 5.8465 5.9037 5.9530 5.9872 6.0200 6.0598 6.0801 6.0915 6.1152
 6.1455 6.1739 6.1724 6.1369 6.1133 6.1497 6.2540 6.3976 6.5370 6.6531
 6.7557 6.8353 6.8786 6.8784 6.8504 6.8085 6.7497 6.6834 6.6236 6.5691
 6.5050 6.4316 6.3593 6.2730 6.1609 6.0524 5.9689 5.8996 5.8430 5.7918
 5.7222 5.6328 5.5485 5.4686 5.3876 5.3180 5.2860 5.2844 5.2923 5.2985
 5.2981 5.2895 5.3043 5.3533 5.4104 5.4500 5.4411 5.4009 5.3538 5.3056
 5.2690 5.2545 5.2500 5.2628 5.2949 5.3339 5.3583 5.3541 5.3447 5.3504
 5.3778 5.4165 5.4330 5.4379 5.4569 5.4850 5.5240 5.5694 5.6081 5.6466
 5.6904 5.7534 5.8394 5.9193 6.0064 6.1252 6.2542 6.3736 6.4793 6.5560
 6.6001 6.6197 6.6229 6.6293 6.6280 6.6072 6.5656 6.5026 6.4297 6.3776
 6.3598 6.3528 6.3319 6.2980 6.2781 6.2851 6.2943 6.3035 6.3126 6.3106
 6.3021 6.2864 6.2474 6.1884 6.1252 6.0703 6.0345 6.0191 6.0148 6.0035
 5.9872 5.9661 5.9477 5.9412 5.9263 5.9021 5.8881 5.8957 5.9189 5.9531
 5.9839 5.9915 5.9717 5.9370 5.8920 5.8687 5.8842 5.9106 5.9486 5.9928
 5.9923 5.9359 5.8426 5.7319 5.6231 5.5328 5.4860 5.4660 5.4480 5.4579
 5.5056 5.5650 5.6087 5.6169 5.5920 5.5670 5.5632 5.5680 5.5717 5.6059
 5.6935 5.7800 5.8055 5.7961 5.7843 5.7757 5.7575 5.7258 5.7321 5.8017
 5.9008 5.9776 6.0298 6.0802 6.1479 6.2076 6.2258 6.1933 6.1209 6.0439
 6.0091 6.0132 6.0314 6.0880 6.1891 6.2835 6.3359 6.3569 6.3590 6.3731
 6.4318 6.5236 6.5937 6.5943 6.5240 6.4198 6.3389 6.2825 6.2006 6.1091
 6.0486 6.0331 6.0535 6.0692 6.0568 6.0192 5.9909 6.0341 6.1465 6.2960
 6.4212 6.4338 6.3518 6.2605 6.1831 6.0809 5.9685 5.8849 5.8264 5.7827
 5.7397 5.6739 5.6054 5.5585 5.5224 5.4912 5.4814 5.4847 5.5007 5.5427
 5.6051 5.6664 5.7422 5.8383 5.9138 5.9505 5.9787 6.0148 6.0532 6.0940
 6.1312 6.1546 6.1792 6.2192 6.2511 6.2614 6.2639 6.2558 6.2340 6.2236
 6.2345 6.2622 6.3039 6.3364 6.3492 6.3423 6.3024 6.2451 6.1959 6.1588
 6.1329 6.1021 6.0593 6.0182 5.9885 5.9805 5.9833 5.9741 5.9682 5.9934
 6.0465 6.0771 6.0778 6.1054 6.1671 6.2371 6.3061 6.3729 6.4372 6.4884
 6.5200 6.4992 6.4392 6.4089 6.4063 6.3852 6.3355 6.2671 6.1863 6.1141
 6.0748 6.0704 6.0802 6.1082 6.1663 6.2418 6.2729 6.2466 6.2246 6.2291
 6.2586 6.3113 6.3603 6.3713 6.3358 6.2875 6.2455 6.1992 6.1546 6.1415
 6.1335 6.0995 6.0638 6.0595 6.0722 6.0835 6.1163 6.1509 6.1826 6.2134
 6.2274 6.2286 6.2221 6.1734 6.1261 6.1875 6.3506 6.5054 6.6290 6.7505
 6.8800 7.0303 7.1430 7.1425 7.0468 6.8843 6.6973 6.5576 6.4586 6.3680
 6.3035 6.2840 6.3095 6.3529 6.3450 6.2924 6.2789 6.3077 6.3246 6.3147
 6.3198 6.3519 6.3522 6.2942 6.1889 6.0645 5.9424 5.8175 5.6933 5.6079
 5.5754 5.5512 5.5109 5.4888 5.5283 5.6128 5.6982 5.7449 5.7713 5.8165
 5.8535 5.8610 5.8472 5.8242 5.8065 5.8188 5.8387 5.8301 5.7933 5.7191
 5.6386 5.5953 5.5879 5.5937 5.5981 5.6019 5.5978 5.5840 5.5804 5.5771
 5.5614 5.5942 5.6970 5.8156 5.9101 5.9681 5.9955 6.0021 6.0328 6.1154
 6.2145 6.2937 6.3748 6.4868 6.6146 6.7211 6.7242 6.6404 6.5681 6.5629
 6.6105 6.6642 6.7149 6.7911 6.8528 6.8159 6.6720 6.5208 6.4328 6.3526
 6.2352 6.1497 6.1152 6.0673 5.9707 5.8824 5.8153 5.7718 5.7514 5.6975
 5.6268 5.6080 5.6356 5.6711 5.6782 5.6724 5.6825 5.6857 5.7182 5.7402
 5.6944 5.6356 5.6146 5.6240 5.6192 5.5898 5.6167 5.7305 5.8977 6.0685
 6.1727 6.2228 6.3156 6.5247 6.7028 6.8020 6.8431 6.8045 6.7881 6.8685
 6.9449 6.9575 6.9699 7.0607 7.1986 7.2710 7.2637 7.1788 7.0204 6.8738
 6.7565 6.6071 6.4353 6.2222 6.0099 5.8498 5.7552 5.7125 5.6873 5.6520
 5.6237 5.6259 5.6241 5.6738 5.7787 5.8591 5.9522 6.0998 6.2036 6.2200
 6.2679 6.3997 6.5389 6.6247 6.7208 6.8726 7.0292 7.1304 7.1470 7.1034
 7.1005 7.0966 6.9747 6.8489 6.8508 6.9590 7.0476 7.0126 6.8631 6.7555
 6.7264 6.7236 6.7719 6.8602 6.8833 6.8051 6.7538 6.8180 6.9041 6.8706
 6.7584 6.6753 6.6361 6.5749 6.5327 6.4988 6.4584 6.4430 6.4246 6.3476
 6.2922 6.3251 6.3591 6.3298 6.2700 6.1512 6.0754 6.0425 5.9926 5.8736
 5.7804 5.7426 5.7488 5.7531 5.7283 5.6782 5.6280 5.5908 5.5630 5.5240
 5.4711 5.4856 5.5498 5.5996 5.6305 5.6152 5.6005 5.5420 5.4553 5.4320
 5.4488 5.4659 5.4472 5.4477 5.5294 5.6251 5.6484 5.6442 5.6301 5.6528
 5.7591 5.9644 6.1791 6.3074 6.3613 6.4219 6.4920 6.4541 6.3802 6.3194
 6.2509 6.1915 6.1187 6.0482 6.0233 5.9885 5.9829 5.9319 5.8883 5.9227
 6.0436 6.2479 6.4971 6.7861 6.8921 6.7021 6.5027 6.5934 6.8715 7.1442
 7.3079 7.4020 7.2868 6.9683 6.7039 6.5803 6.4225 6.2375 6.1417 6.0707
 5.9101 5.7544 5.7159 5.7548 5.7851 5.8340 5.8592 5.8070 5.7666 5.8487
 5.9494 5.9930 5.9722 5.8537 5.6595 5.4975 5.4280 5.4378 5.3369 5.1417
 5.0220 5.0220 5.0673 5.0735 5.0320 5.0301 5.0617 5.0203 4.9573 4.9705
 5.0490 5.0928 5.0678 5.0355 5.0663 5.1725 5.2773 5.2919 5.3281 5.4940
 5.7156 5.7936 5.8000 5.9239 6.2040 6.5178 6.5633 6.3729 6.3929 6.6272
 6.9003 7.2681 7.5515 7.5453 7.5720 7.5717 7.4628 7.3350 7.1454 7.0202
 6.9289 6.7710 6.6132 6.5783 6.5917 6.6189 6.6311 6.4651 6.2138 6.0727
 6.1010 6.2355 6.3409 6.4389 6.5709 6.6442 6.6349 6.6509 6.6858 6.5974
 6.3945 6.1936 6.0381 5.9540 5.9542 5.9783 6.0132 6.1096 6.1663 6.2995
 6.6042 6.9363 7.1954 7.2136 7.0824 7.1390 7.2957 7.2510 7.0815 6.8868
 6.7181 6.6695 6.7077 6.7527 6.6619 6.5194 6.3969 6.1742 6.0122 5.9695
 5.9062 5.8141 5.7269 5.6401 5.5706 5.5450 5.5222 5.4056 5.3379 5.3659
 5.4779 5.5711 5.5154 5.4315 5.4620 5.5453 5.5361 5.4601 5.4020 5.4330
 5.4609 5.4142 5.3620 5.4268 5.5885 5.6382 5.7220 5.9522 6.1198 6.1951
 6.2811 6.3212 6.2816 6.3410 6.4012 6.5291 6.8177 7.1187 7.2595 7.3424
 7.3853 7.4183 7.6570 8.0551 8.2034 8.0650 7.9814 8.0482 8.0070 7.8228
 7.5387 7.3540 7.1951 6.8605 6.5338 6.2742 6.0813 5.9633 5.8210 5.6361
 5.5532 5.6077 5.5609 5.5007 5.6315 5.8232 5.9238 5.9874 6.0574 6.0692
 6.0605 6.0548 6.0457 6.0047 5.9447 5.9923 6.1032 6.1931 6.1684 6.0850
 6.0172 5.9110 5.6769 5.5541 5.4980 5.3809 5.2275 5.0798 4.9754 4.9036
 4.8455 4.8560 4.9250 5.0127 5.0863 5.1109 5.0509 4.9641 4.9345 4.9830
 5.0629 5.1238 5.1349 5.0811 5.0699 5.0448 5.0420 5.1485 5.2394 5.2425
 5.1667 5.1065 5.0702 5.0650 5.0871 5.1459 5.2907 5.4419 5.5095 5.5660
 5.7673 5.9345 5.9312 5.7946 5.6963 5.7016 5.6270 5.5081 5.4828 5.5372
 5.5978 5.7177 5.8740 5.9325 5.9044 5.7915 5.6102 5.5715 5.7276 5.8496
 5.8964 5.8332 5.7392 5.7602 5.8189 5.9636 6.1415 6.1836 6.1577 6.1101
 5.9479 5.7068 5.5037 5.4206 5.3893 5.3430 5.3623 5.4247 5.4277 5.4958
 5.7527 6.0267 6.1685 6.1322 6.0919 6.0459 6.0352 6.1620 6.3713 6.4304
 6.3423 6.3776 6.4177 6.3430 6.2112 6.0731 5.9704 5.8910 5.9193 6.1006
 6.2696 6.3484 6.3588 6.3373 6.2897 6.2532 6.2654 6.2001 6.0733 6.0371
 6.0992 6.2692 6.5149 6.5881 6.4202 6.3448 6.4088 6.3725 6.2097 6.0931
 5.9767 5.8579 5.8236 5.7406 5.6499 5.6145 5.5964 5.6887 5.8222 5.8326
 5.8092 5.9908 6.2390 6.4218 6.5705 6.7182 6.6842 6.6404 6.5948 6.3881
 6.2445 6.2187 6.2133 6.2400 6.2400 6.1999 6.2166 6.1699 6.0272 5.9979
 5.9800 5.9639 5.9209 5.9118 5.9554 5.8792 5.8312 5.8301 5.7778 5.7272
 5.9511 6.2940 6.3217 6.1179 6.1438 6.4670 6.5764 6.4422 6.3678 6.3279
 6.2373 6.3018 6.5113 6.5378 6.4411 6.4025 6.5189 6.7600 6.8544 6.5123
 6.2839 6.3366 6.4896 6.6862 6.9255 7.0493 6.9522 6.8445 6.8096 6.7586
 6.6669 6.6291 6.6119 6.4712 6.2298 6.0032 5.8710 5.7383 5.6370 5.6013
 5.5123 5.3737 5.2800 5.3147 5.4592 5.5153 5.5045 5.4571 5.2180 5.0597
 5.0351 4.9445 4.8100 4.7340 4.7650 4.7388 4.5716 4.4338 4.4353 4.4301
 4.4016 4.4481 4.5199 4.5320 4.4938 4.4622 4.5018 4.5088 4.4293 4.3660
 4.3493 4.3430 4.4242 4.6419 4.8600 5.0759 5.4546 5.7166 5.6166 5.4806
 5.6461 5.9434 6.1345 6.3176 6.5084 6.4781 6.3000 6.1083 5.9841 6.0130
 6.2127 6.4249 6.4399 6.2278 6.2067 6.4125 6.5619 6.6581 6.5686 6.3052
 6.1805 6.1768 6.1099 6.0446 6.0948 6.0989 5.9449 5.7355 5.5283 5.3511
 5.3225 5.3216 5.3229 5.3475 5.3641 5.3188 5.1743 5.0530 4.9022 4.7011
 4.6171 4.6923 4.6330 4.5201 4.4628 4.3742 4.3169 4.3595 4.3811 4.3332
 4.3116 4.2923 4.2787 4.2979 4.3127 4.4114 4.5581 4.7187 5.0245 5.2396
 5.2315 5.2752 5.4311 5.8206 6.1262 6.1330 6.2938 6.3890 6.2865 6.1724
 6.1428 6.2485 6.3285 6.4789 6.6005 6.6142 6.5967 6.4005 6.0859 6.0217
 6.1142 6.1264 6.0967 6.0688 6.0416 5.9775 5.8937 5.8554 5.8323 5.7096
 5.5474 5.4268 5.3870 5.3542 5.2618 5.1353 5.0203 4.8762 4.7240 4.6311
 4.5769 4.5634 4.5516 4.4965 4.4427 4.3237 4.1986 4.1899 4.3269 4.4556
 4.4794 4.4486 4.4725 4.5933 4.7545 4.8997 4.9956 5.0622 5.0921 5.1286
 5.1492 5.2295 5.3573 5.4352 5.5408 5.6899 5.7574 5.7168 5.6971 5.7581
 5.9006 6.0168 5.9598 5.9580 6.0287 6.1056 6.0846 5.9266 5.8148 5.6837
 5.4621 5.3268 5.4271 5.4688 5.4643 5.5263 5.5410 5.5759 5.6839 5.8354
 6.1764 6.7282 7.2035 7.4014 7.3226 7.4952 8.0330 8.0586 7.6905 7.6146
 7.6517 7.6259 7.5582 7.2210 6.6988 6.3812 6.2729 6.1702 6.1222 6.1851
 6.2343 6.2451 6.2211 6.1503 5.9791 5.8359 5.7956 5.8192 5.9440 5.9878
 5.8450 5.6133 5.5296 5.5357 5.4828 5.4279 5.4314 5.3077 5.1686 5.1619
 5.2722 5.2805 5.2159 5.0957 4.9486 4.7676 4.5758 4.4302 4.3360 4.2592
 4.2112 4.1609 4.1121 4.0664 4.0401 4.0152 3.9403 3.9229 3.9520 3.9426
 3.9180 3.9362 3.9688 3.9483 3.8514 3.7745 3.7294 3.7656 3.8440 3.8555
 3.8948 3.9741 4.0156 4.1232 4.2628 4.4539 4.8504 5.3791 5.7444 5.9200
 6.1524 6.3517 6.4143 6.4485 6.7141 7.1835 7.4775 7.3059 6.8978 6.6308
 6.7914 7.1471 7.4025 7.5575 7.5096 7.2427 6.9771 6.8461 6.7263 6.4536
 6.1641 6.0012 6.0486 6.2322 6.2420 6.0596 6.0979 6.1345 6.0258 5.8819
 5.5891 5.2364 4.9437 4.7947 4.6657 4.4276 4.2705 4.2805 4.3826 4.4566
 4.4593 4.3204 4.2294 4.2865 4.3615 4.3757 4.3840 4.3846 4.4083 4.3717
 4.2507 4.0649 3.9530 3.9058 3.8474 3.7736 3.7104 3.7034 3.7273 3.7705
 3.7794 3.6845 3.5666 3.4878 3.4761 3.4863 3.5786 3.8033 4.0361 4.0493
 4.0230 3.9654 3.8610 3.8759 3.9203 3.9637 4.0092 4.0026 3.9981 4.0341
 4.1062 4.2182 4.3199 4.3380 4.3170 4.3309 4.3218 4.3333 4.2834 4.2098
 4.2080 4.2489 4.3216 4.5053 4.6230 4.5407 4.5018 4.5167 4.5200 4.5637
 4.5278 4.4608 4.4466 4.4899 4.4691 4.4529 4.6210 4.8574 4.9871 5.0708
 5.2249 5.5307 5.7019 5.5614 5.4423 5.5142 5.7655 6.2219 6.7618 6.8472
 6.7456 6.9965 7.2625 7.1857 7.0093 6.7412 6.4074 6.2375 6.1643 6.0545
 5.8766 5.6618 5.4972 5.5166 5.4962 5.3751 5.3905 5.4127 5.3098 5.2531
 5.1556 4.9586 4.9047 4.9411 4.8653 4.7340 4.6741 4.7159 4.8590 4.8414
 4.6302 4.4019 4.2159 4.1810 4.1411 4.0579 4.0477 4.0510 4.0354 3.9676
 3.9129 3.9344 4.0134 4.0328 4.1033 4.2478 4.3159 4.2652 4.2635 4.3320
 4.4192 4.5988 4.7258 4.8306 5.0517 5.3177 5.5613 5.8505 6.1951 6.3400
 6.4219 6.6356 6.9759 7.4319 7.9013 7.9130 7.6959 7.7180 7.6888 7.5737
 7.6471 7.5903 7.3518 6.8889 6.4856 6.2783 5.9821 5.5855 5.2586 5.1244
 5.1212 5.2440 5.3884 5.4120 5.2227 4.9361 4.8340 4.7875 4.6571 4.6366
 4.6376 4.5942 4.5985 4.5915 4.4040 4.1694 4.0730 4.1228 4.1256 4.0233
 3.9143 3.8792 3.8456 3.8049 3.8010 3.8094 3.8347 3.9284 4.0214 4.1257
 4.3170 4.3703 4.4143 4.5415 4.5924 4.5497 4.4915 4.5273 4.5795 4.6854
 4.7402 4.6236 4.4526 4.3677 4.3625 4.3876 4.3533 4.3487 4.3926 4.3253
 4.2326 4.2684 4.3955 4.3528 4.1678 4.0490 4.0391 4.0461 4.1460 4.3063
 4.4402 4.5377 4.5129 4.5573 4.7146 4.8710 4.9669 4.8277 4.7180 4.7095
 4.6079 4.5686 4.6575 4.7358 4.7658 4.8633 4.8646 4.8438 4.8611 4.8907
 4.8845 4.7073 4.5551 4.4644 4.2982 4.2339 4.3182 4.4261 4.5014 4.6626
 4.7692 4.8156 4.9241 4.8925 4.7104 4.6513 4.5840 4.4574 4.4034 4.2218
 3.9960 3.9144 3.8713 3.8267 3.8403 3.7354 3.6141 3.6498 3.6720 3.6010
 3.6377 3.7223 3.7223 3.7661 3.8685 4.1532 4.5273 4.7370 4.8583 4.8532
 4.7311 4.6570 4.5719 4.4210 4.3521 4.4000 4.5091 4.5487 4.4281 4.2424
 4.1742 4.1635 4.1491 4.1348 4.1236 3.9928 3.8777 3.8664 3.8910 3.9524
 4.0411 4.1359 4.3011 4.3284 4.2482 4.2745 4.3279 4.3104 4.1988 4.1080
 3.9943 3.8517 3.8590 3.9022 3.8196 3.6577 3.4644 3.2994 3.2285 3.2257
 3.2253 3.2540 3.3057 3.3608 3.4332 3.4781 3.5761 3.7362 3.7502 3.8398
 4.0620 4.2498 4.4646 4.6740 4.8639 5.0247 5.0933 5.0402 5.0056 4.9953
 4.9872 5.0707 5.1950 5.2694 5.2423 5.3446 5.4614 5.2760 5.0002 4.8117
 4.6763 4.6069 4.6972 4.8295 4.9045 4.9077 4.8563 4.7436 4.5823 4.5214
 4.4883 4.4194 4.3238 4.1490 3.9448 3.7889 3.6178 3.5631 3.6865 3.8788
 3.9807 3.8812 3.8398 4.0479 4.2576 4.3286 4.2239 4.1694 4.2613 4.2532
 4.2070 4.1701 4.2287 4.4044 4.4631 4.4236 4.4842 4.6475 4.7076 4.7071
 4.7398 4.7859 4.8948 5.0194 5.2183 5.4162 5.3011 5.0136 4.7730 4.7350
 4.7032 4.6983 4.7650 4.7140 4.5031 4.2653 4.1592 4.2030 4.3453 4.4118
 4.3848 4.2744 4.1063 4.0324 4.0244 3.9385 3.8721 3.8259 3.7571 3.7118
 3.6258 3.5550 3.5445 3.5341 3.4923 3.4705 3.5499 3.6143 3.6052 3.6054
 3.6028 3.6098 3.6360 3.6287 3.6636 3.7409 3.7877 3.9237 4.1827 4.2655
 4.3133 4.8157 5.3438 5.6013 5.9100 6.0568 5.9272 5.6460 5.4150 5.4546
 5.6333 5.7575 5.7824 5.7363 5.6080 5.5259 5.4623 5.3309 5.1100 4.9309
 4.7872 4.6183 4.4921 4.4445 4.4741 4.5173 4.5466 4.4522 4.3043 4.1951
 4.1302 4.2382 4.4323 4.5065 4.4107 4.3837 4.3292 4.2263 4.2106 4.2155
 4.1818 3.9991 3.8727 3.8646 3.8641 3.8073 3.7210 3.6168 3.5160 3.4562
 3.4344 3.3462 3.2001 3.0954 2.9936 2.8688 2.8006 2.7695 2.7708 2.7998
 2.7685 2.7132 2.6543 2.6323 2.7018 2.7681 2.8016 2.7548 2.7304 2.8383
 2.9818 3.1780 3.3059 3.3596 3.3881 3.4671 3.5690 3.7414 4.0501 4.2792
 4.2284 4.1690 4.2931 4.5275 4.7302 4.7641 4.7109 4.5277 4.4343 4.3666
 4.2069 4.1305 4.0505 3.9814 3.9845 4.0591 4.0845 3.9327 3.7971 3.7824
 3.9951 4.1888 4.1397 4.1148 4.1074 4.0557 4.1872 4.2707 4.0415 3.8391
 3.7407 3.4578 3.2360 3.2165 3.3377 3.4429 3.4260 3.3406 3.2830 3.2517
 3.2688 3.3393 3.3672 3.3201 3.2559 3.2251 3.2085 3.2326 3.2811 3.1689
 3.0463 3.0028 3.0552 3.1036 2.9957 2.8581 2.7937 2.7763 2.7796 2.7660
 2.7307 2.7775 2.9338 3.0672 3.1420 3.1824 3.2341 3.2607 3.1970 3.1411
 3.1361 3.2222 3.3996 3.4907 3.4389 3.3717 3.3149 3.2169 3.1438 3.1252
 3.0726 3.0311 3.0081 2.9516 2.9778 3.0904 3.1575 3.1055 2.9479 2.8545
 2.9086 3.0001 3.0917 3.1360 3.1150 3.0481 3.0097 3.1256 3.2957 3.3617
 3.3839 3.4355 3.5641 3.6348 3.5654 3.4748 3.4434 3.4235 3.3911 3.4207
 3.4870 3.4622 3.3742 3.2692 3.1714 3.1406 3.1808 3.1920 3.2457 3.3251
 3.4137 3.4316 3.3200 3.2951 3.3288 3.2361 3.1656 3.2018 3.2554 3.4098
 3.6091 3.5469 3.4834 3.5927 3.6524 3.7261 4.0656 4.5174 4.6354 4.5859
 4.6473 5.0409 5.5304 5.6552 5.4649 5.1906 5.1206 5.1287 5.0214 4.8274
 4.7280 4.6902 4.5396 4.3994 4.4359 4.5982 4.5818 4.4724 4.6420 4.9840
 5.1702 4.9976 4.7366 4.7117 4.7700 4.6405 4.4597 4.4341 4.5133 4.4496
 4.3050 4.2654 4.3368 4.3500 4.2290 4.1395 3.9725 3.7274 3.5279 3.4092
 3.5203 3.6641 3.7325 3.7605 3.6475 3.4427 3.3151 3.3845 3.5164 3.5456
 3.4884 3.4065 3.3438 3.2420 3.0929 3.0498 3.1970 3.3355 3.2899 3.1128
 3.0438 3.1026 3.2298 3.2223 3.0926 3.0105 2.9855 3.0306 3.0984 3.1091
 3.1331 3.1515 3.0749 2.9836 2.9775 3.0591 3.1874 3.2220 3.1924 3.1607
 3.0793 2.9987 2.9634 3.0452 3.1872 3.2276 3.1167 2.9842 2.9081 2.8765
 2.9032 2.9260 2.9445 2.9215 2.9715 3.0299 2.9418 2.8914 3.0290 3.1526
 3.1683 3.2105 3.2062 3.1368 3.1878 3.2300 3.2156 3.2684 3.3731 3.3937
 3.4414 3.6722 3.9838 4.1363 4.0635 4.0811 4.1898 4.1871 4.1418 4.2028
 4.3564 4.4348 4.3463 4.2538 4.0752 3.8968 3.7882 3.6437 3.5098 3.4446
 3.4515 3.4342 3.4537 3.5266 3.5366 3.5986 3.6111 3.4888 3.4191 3.3670
 3.3714 3.4000 3.3319 3.1986 3.1513 3.2386 3.3526 3.3991 3.3646 3.3936
 3.6630 3.8681 3.7872 3.5369 3.4122 3.4637 3.4798 3.4209 3.2979 3.2055
 3.1951 3.1489 3.1453 3.1109 2.9886 2.8922 2.8671 2.8683 2.8173 2.7628
 2.6808 2.6169 2.6217 2.7224 2.7856 2.7570 2.7008 2.6396 2.6481 2.6261
 2.5458 2.5032 2.4684 2.4123 2.3369 2.2414 2.1384 2.1246 2.2123 2.3098
 2.2945 2.2540 2.2461 2.2322 2.1774 2.1507 2.1316 2.1063 2.1489 2.2071
 2.2229 2.2025 2.1765 2.2196 2.3008 2.3767 2.4132 2.3985 2.3430 2.3475
 2.4434 2.4732 2.4670 2.5624 2.6570 2.6801 2.6809 2.6060 2.5409 2.5444
 2.5983 2.7202 2.7853 2.7699 2.6890 2.6121 2.6478 2.7779 2.7678 2.7076
 2.6872 2.6604 2.6026 2.5502 2.5547 2.5354 2.5908 2.7342 2.7488 2.6995
 2.7282 2.7410 2.6913 2.6677 2.7495 2.7830 2.7834 2.8315 2.8621 2.8574
 2.7539 2.6091 2.5209 2.4155 2.3035 2.2635 2.2890 2.3833 2.4317 2.4140
 2.4007 2.4301 2.4936 2.5304 2.5036 2.4053 2.2904 2.2421 2.2475 2.2705
 2.3326 2.3655 2.3609 2.3741 2.4032 2.4625 2.5515 2.5814 2.6200 2.7421
 2.8267 2.8656 2.8844 2.9122 2.9440 3.0201 3.0828 3.1549 3.2462 3.2836
 3.4662 3.8312 4.1452 4.1694 4.1762 4.1615 4.1546 4.3438 4.5326 4.6205
 4.7775 5.0986 5.2631 5.1336 4.8371 4.4517 4.2059 4.0438 3.9069 3.8556
 3.9515 4.0866 4.0571 4.0285 4.1028 3.9381 3.7123 3.5960 3.5762 3.6219
 3.5555 3.4502 3.3340 3.2401 3.1782 3.0959 2.9647 2.8889 3.0018 3.1717
 3.3173 3.2340 3.0514 2.9274 2.8621 2.7974 2.7752 2.7074 2.5582 2.4873
 2.5166 2.4790 2.4223 2.4048 2.3369 2.2403 2.1685 2.1034 2.0451 2.0209
 2.0208 2.0637 2.1062 2.0943 2.0584 1.9849 1.9727 2.0653 2.1755 2.2075
 2.1865 2.2432 2.3725 2.4803 2.5211 2.4710 2.4578 2.4694 2.4315 2.4124
 2.3855 2.3322 2.2716 2.2202 2.1466 2.1143 2.1633 2.2245 2.2872 2.3275
 2.3137 2.2939 2.2731 2.2561 2.2808 2.3651 2.4785 2.5637 2.6142 2.7048
 2.8009 2.7881 2.8220 2.8221 2.7722 2.8437 2.9187 2.9482 2.9413 2.8725
 2.8113 2.7921 2.7603 2.8475 2.9841 3.0556 3.1024 3.1687 3.1423 3.0381
 3.0835 3.3478 3.4900 3.3744 3.3196 3.3727 3.4507 3.4251 3.3530 3.4687
 3.6706 3.6243 3.3565 3.2127 3.1705 3.1026 3.0726 3.0692 3.1034 3.0902
 2.9807 2.9124 2.8777 2.9548 3.1063 3.2196 3.2638 3.1764 3.1147 3.1599
 3.2437 3.3089 3.1940 3.1191 3.1868 3.1788 3.1334 3.0873 3.1098 3.1875
 3.2183 3.1894 3.1309 3.0788 3.0298 3.0871 3.1808 3.1431 3.1111 3.1723
 3.2132 3.0338 2.8114 2.7306 2.6990 2.6575 2.5251 2.4431 2.4464 2.4463
 2.3972 2.3538 2.3118 2.2650 2.1988 2.1289 2.1051 2.1246 2.0807 2.0204
 2.0127 2.0127 1.9829 1.9913 2.0710 2.1371 2.1202 2.0304 1.9374 1.8479
 1.7611 1.7213 1.7281 1.7611 1.8053 1.8097 1.7702 1.7464 1.7255 1.7110
 1.7419 1.7378 1.6738 1.6274 1.6201 1.6365 1.6462 1.6814 1.6611 1.5809
 1.5274 1.5035 1.4869 1.4767 1.4298 1.3889 1.4091 1.4312 1.4350 1.4443
 1.4458 1.4560 1.4581 1.4823 1.5295 1.5192 1.4570 1.3948 1.3866 1.4406
 1.5095 1.5441 1.5175 1.5119 1.5501 1.5912 1.5861 1.5516 1.5758 1.6451
 1.6362 1.6032 1.6128 1.6399 1.7150 1.8196 1.8876 1.8974 1.8798 1.8397
 1.7563 1.6687 1.6381 1.6437 1.6776 1.7260 1.7574 1.7657 1.7635 1.7482
 1.7849 1.8327 1.8628 1.9105 1.9945 2.0541 2.1052 2.1359 2.1402 2.2036
 2.2809 2.3278 2.4499 2.5586 2.5234 2.5579 2.6248 2.5647 2.5514 2.6934
 2.8293 2.8857 2.9748 3.1076 3.1078 2.9511 2.6750 2.4423 2.3471 2.3065
 2.2924 2.3562 2.3778 2.2355 2.0706 2.0018 1.9822 2.0576 2.1248 2.0811
 2.0233 2.0525 2.0501 2.0105 2.0484 2.1267 2.1971 2.2945 2.4172 2.5005
 2.5582 2.7071 2.8855 2.9283 2.8807 2.8857 2.8983 2.9829 3.1442 3.3251
 3.6080 3.8005 3.6244 3.2869 3.1268 3.0342 2.9019 2.9114 2.9472 2.8964
 2.9306 2.9521 2.8451 2.6698 2.4969 2.4370 2.4094 2.3746 2.3008 2.2225
 2.1530 2.1129 2.1031 2.1234 2.1617 2.1301 2.0535 2.1109 2.1832 2.2130
 2.2398 2.3014 2.3352 2.2703 2.2317 2.1675 2.1269 2.1689 2.1373 2.0382
 2.0402 2.1442 2.1829 2.0945 1.9729 1.8733 1.8764 1.9056 1.8948 1.8903
 1.8490 1.7376 1.6878 1.7484 1.8197 1.9125 1.8653 1.7002 1.6257 1.6256
 1.6997 1.8348 1.8501 1.7779 1.7865 1.8393 1.8908 1.9296 1.8940 1.8613
 1.8299 1.8014 1.8652 2.0104 2.1332 2.2537 2.3599 2.3182 2.1550 2.0118
 1.9787 2.0698 2.2195 2.2813 2.2658 2.3090 2.4240 2.5623 2.6504 2.5810
 2.4295 2.3321 2.3543 2.4211 2.4363 2.3414 2.3046 2.4759 2.7631 2.9722
 2.9683 2.8204 2.6682 2.5540 2.5237 2.5118 2.4805 2.4487 2.4726 2.5588
 2.5129 2.4024 2.3648 2.3636 2.3967 2.4297 2.3741 2.2655 2.2408 2.2988
 2.3416 2.3856 2.4553 2.4087 2.3081 2.2641 2.2824 2.3674 2.3317 2.3191
 2.4047 2.4860 2.6172 2.6662 2.4667 2.3043 2.2009 2.1013 2.0781 2.0901
 2.0991 2.1104 2.1555 2.1979 2.2702 2.3146 2.2652 2.3444 2.3477 2.2325
 2.3721 2.5160 2.4040 2.3401 2.3209 2.3825 2.5736 2.5995 2.4200 2.2635
 2.1640 2.0788 2.0437 2.0499 1.9907 1.9196 1.9781 2.0379 2.0267 1.9135
 1.7931 1.7479 1.7468 1.7491 1.7326 1.7157 1.7234 1.7638 1.7804 1.7509
 1.7200 1.7087 1.6457 1.5357 1.4602 1.4611 1.5042 1.5665 1.6170 1.6047
 1.5811 1.6289 1.6571 1.5936 1.5504 1.5587 1.5683 1.5891 1.5858 1.5291
 1.4801 1.4561 1.4530 1.4299 1.4026 1.3905 1.4111 1.3953 1.3644 1.3542
 1.3307 1.3227 1.3384 1.3782 1.4201 1.4090 1.3994 1.4422 1.4536 1.4362
 1.4180 1.4224 1.4292 1.3612 1.2839 1.2627 1.2860 1.3260 1.3458 1.3448
 1.3415 1.3601 1.3772 1.3768 1.4138 1.4356 1.3571 1.2822 1.2407 1.2052
 1.2137 1.2359 1.2245 1.1635 1.1148 1.1069 1.1218 1.1527 1.2007 1.2220
 1.2335 1.2488 1.2743 1.2793 1.2582 1.2345 1.1949 1.1449 1.1101 1.1322
 1.1965 1.2615 1.3799 1.4403 1.4286 1.4638 1.5019 1.5119 1.5096 1.5679
 1.6486 1.7709 1.9483 2.0703 2.0321 1.9881 1.9968 2.0147 2.0636 2.0000
 1.8429 1.7062 1.6792 1.6627 1.6019 1.5687 1.6321 1.7105 1.7621 1.7938
 1.7646 1.7618 1.7744 1.7277 1.7055 1.7617 1.8188 1.7708 1.6950 1.6388
 1.6482 1.7764 1.8633 1.8372 1.8115 1.8872 1.9234 1.8668 1.8453 1.8479
 1.7847 1.6789 1.5919 1.5648 1.5907 1.6060 1.6065 1.5979 1.5494 1.5423
 1.5645 1.5748 1.5882 1.5922 1.6206 1.6321 1.5770 1.4961 1.3998 1.3458
 1.3462 1.3408 1.3264 1.3521 1.3972 1.4317 1.4552 1.4254 1.3690 1.3377
 1.3241 1.3163 1.3282 1.3451 1.4011 1.4280 1.3615 1.3498 1.3445 1.3441
 1.3360 1.2844 1.2455 1.2659 1.3104 1.3565 1.3630 1.3523 1.4076 1.4829
 1.4928 1.4791 1.4571 1.4402 1.4618 1.4806 1.5550 1.6092 1.5264 1.5009
 1.5846 1.5183 1.3196 1.2409 1.2358 1.2290 1.2250 1.2756 1.3320 1.3259
 1.3183 1.3451 1.3244 1.3089 1.3879 1.4347 1.3985 1.3768 1.3765 1.4351
 1.5183 1.5247 1.4797 1.4972 1.5256 1.5630 1.6067 1.6205 1.6715 1.7115
 1.7981 1.9475 2.0870 2.2222 2.2913 2.2094 2.1071 2.1127 2.1759 2.2259
 2.2758 2.3086 2.3167 2.3615 2.3638 2.2828 2.2010 2.0940 1.9955 1.9281
 1.9151 1.9701 2.0090 2.0448 2.1112 2.1488 2.0568 1.9459 1.9196 1.9733
 2.0647 2.1152 2.1188 2.0980 2.0677 2.0975 2.1138 2.1311 2.1419 2.0558
 1.9553 1.8446 1.7699 1.7679 1.7301 1.6334 1.5740 1.5278 1.4471 1.4181
 1.4656 1.5234 1.5512 1.5855 1.6298 1.6753 1.7170 1.7025 1.7167 1.7304
 1.7275 1.7569 1.7730 1.7524 1.7902 1.8111 1.8052 1.7575 1.7252 1.6853
 1.6141 1.6250 1.6696 1.6356 1.5979 1.5351 1.4976 1.5181 1.5264 1.4960
 1.4396 1.4096 1.4253 1.4389 1.4237 1.4127 1.4093 1.4192 1.4370 1.4387
 1.4385 1.4506 1.4559 1.4425 1.4348 1.3667 1.2593 1.2184 1.2538 1.2877
 1.3029 1.3370 1.4041 1.4191 1.4285 1.4492 1.4283 1.4070 1.4509 1.5311
 1.5580 1.5592 1.5895 1.5937 1.5526 1.5653 1.5746 1.4708 1.3553 1.3275
 1.3383 1.3287 1.3324 1.3441 1.3806 1.4217 1.4102 1.4042 1.4090 1.4422
 1.4679 1.4585 1.4605 1.4389 1.3750 1.3614 1.3976 1.4141 1.4410 1.4891
 1.4800 1.4605 1.4337 1.4141 1.4049 1.3961 1.4081 1.4124 1.4141 1.4434
 1.5179 1.5207 1.4519 1.4830 1.5425 1.5131 1.5191 1.5649 1.6254 1.5732
 1.4673 1.4598 1.4528 1.4085 1.3694 1.3428 1.3138 1.3156 1.3473 1.4065
 1.4646 1.4724 1.4138 1.3339 1.2656 1.2052 1.1341 1.0812 1.0969 1.1274
 1.1306 1.1268 1.1246 1.1271 1.1376 1.1885 1.2720 1.2795 1.2048 1.1289
 1.0933 1.0962 1.1326 1.1782 1.1949 1.1677 1.0889 1.0196 1.0106 1.0389
 1.0195 0.9929 0.9955 0.9997 0.9760 0.9263 0.8760 0.8229 0.7794 0.7340
 0.6946 0.6927 0.7083 0.7177 0.7198 0.7094 0.7144 0.7449 0.7737 0.7822
 0.7620 0.7410 0.7431 0.7377 0.7336 0.7443 0.7744 0.8172 0.8820 0.9170
 0.9111 0.8597 0.8189 0.8413 0.8920 0.9123 0.8819 0.8269 0.7859 0.7613
 0.7586 0.7481 0.7244 0.7196 0.7383 0.7433 0.7343 0.7276 0.7512 0.7953
 0.8119 0.8018 0.7841 0.7699 0.7464 0.7466 0.7714 0.7708 0.7574 0.7884
 0.8109 0.7791 0.7917 0.8455 0.9399 1.0657 1.1440 1.1735 1.1298 1.0658
 1.0764 1.1166 1.1678 1.2678 1.3615 1.3843 1.3650 1.3063 1.2428 1.2050
 1.1878 1.1315 1.0852 1.0944 1.1637 1.2088 1.1897 1.1771 1.2548 1.3374
 1.3295 1.2938 1.2686 1.2976 1.2242 1.0936 1.0116 0.9914 0.9876 0.9677
 0.9874 0.9929 0.9391 0.8956 0.8956 0.9024 0.9011 0.8706 0.8224 0.7685
 0.7327 0.7372 0.7312 0.7095 0.6930 0.6668 0.6424 0.6290 0.6389 0.6552
 0.6673 0.6756 0.7017 0.7196 0.7218 0.7384 0.7636 0.7746 0.7868 0.8270
 0.8799 0.8822 0.8472 0.8535 0.9117 0.9591 1.0301 1.1707 1.2540 1.2313
 1.2105 1.2675 1.2927 1.2328 1.1777 1.1948 1.2920 1.3542 1.3058 1.3079
 1.4200 1.4674 1.4291 1.4318 1.4158 1.3614 1.2999 1.2757 1.2733 1.2838
 1.3207 1.3885 1.4191 1.4184 1.4007 1.3679 1.3677 1.4422 1.5419 1.5135
 1.4061 1.3340 1.3151 1.3552 1.3541 1.3632 1.3957 1.3858 1.3613 1.3191
 1.2683 1.2422 1.2247 1.1798 1.1398 1.1362 1.1769 1.2002 1.2088 1.1988
 1.1384 1.0729 1.0537 1.0695 1.0810 1.0901 1.1362 1.1774 1.1820 1.2123
 1.2598 1.2435 1.2281 1.2737 1.3401 1.3670 1.3945 1.5176 1.6418 1.6531
 1.6044 1.5329 1.5097 1.4272 1.3517 1.3158 1.2866 1.3117 1.2896 1.2117
 1.1646 1.1256 1.0830 1.0853 1.0992 1.0828 1.0911 1.1243 1.1145 1.1195
 1.1662 1.1679 1.1253 1.0798 1.0114 0.9353 0.8872 0.8929 0.9008 0.9070
 0.9392 0.9288 0.8803 0.9128 0.9998 1.0359 1.0283 0.9828 0.9770 1.1302
 1.3204 1.3570 1.3149 1.2610 1.2141 1.2113 1.2372 1.2835 1.2947 1.3008
 1.3590 1.3638 1.2861 1.2295 1.2476 1.2466 1.1997 1.1794 1.1953 1.2367
 1.2473 1.1958 1.1468 1.1034 1.0734 1.0541 1.0463 1.1268 1.2590 1.3104
 1.2539 1.1950 1.1910 1.1764 1.1442 1.1571 1.2504 1.3474 1.3673 1.3678
 1.3959 1.4097 1.3470 1.2579 1.2109 1.1999 1.1705 1.1484 1.1399 1.1327
 1.1172 1.0514 1.0018

Temp = 230.2K  -  Data version 1
Harder, Brault, Johnston and Mount  [JGR, 102, 3861-3880, 1997]
"Temperature Dependent NO2 Cross Sections at High Spectral Resolution"
NO2 cross section [10^-19 cm^2/molecule]
  Data Smoothed with a Gaussian FWHM = 0.1 nm
    Compiled by E.P.Shettle, NRL, Washington, DC

Nvalues  1st Wave  d(wave) last Wave   Temp
          [nm]     [nm]     [nm]       [K]
  4093    345.2            0.05     549.8     230.2

 3.2439 3.2461 3.2634 3.2544 3.2494 3.2519 3.2506 3.2593 3.2673 3.2692
 3.3026 3.3419 3.3873 3.4384 3.5088 3.5624 3.5944 3.6307 3.6295 3.6356
 3.6367 3.6281 3.6563 3.7269 3.7919 3.8326 3.8447 3.8636 3.9208 3.9585
 3.9758 3.9849 3.9596 3.9294 3.8566 3.7754 3.7248 3.6683 3.5992 3.5902
 3.6215 3.6418 3.6273 3.6043 3.5775 3.5511 3.5478 3.5397 3.5535 3.5603
 3.5487 3.5402 3.5442 3.5935 3.6488 3.7220 3.8286 3.9693 4.1724 4.3820
 4.5229 4.6065 4.6359 4.6665 4.7118 4.7308 4.7144 4.6963 4.6739 4.6058
 4.5106 4.4084 4.3158 4.2421 4.2117 4.1801 4.1082 4.0203 3.9439 3.8625
 3.7691 3.6856 3.6124 3.5288 3.4332 3.3705 3.3346 3.3222 3.3325 3.3597
 3.3897 3.4108 3.4273 3.4554 3.4886 3.4967 3.5011 3.5475 3.5946 3.5987
 3.5869 3.6023 3.6207 3.6417 3.6740 3.7221 3.7719 3.7811 3.7538 3.7476
 3.8007 3.8580 3.8909 3.9287 3.9706 3.9958 4.0187 4.0574 4.0909 4.1233
 4.1640 4.1715 4.1259 4.0678 4.0232 3.9800 3.9477 3.9105 3.8621 3.8071
 3.7613 3.7345 3.6989 3.6747 3.6843 3.7234 3.7656 3.8003 3.8555 3.9502
 4.0521 4.1169 4.1441 4.1263 4.0828 4.0596 4.0436 3.9925 3.9148 3.8264
 3.7511 3.6786 3.6021 3.5416 3.4850 3.4354 3.4041 3.3822 3.3852 3.4101
 3.4293 3.4556 3.4986 3.5509 3.6169 3.6841 3.7627 3.8547 3.9359 4.0092
 4.0936 4.1824 4.2555 4.3237 4.4101 4.5021 4.5915 4.6805 4.7687 4.8612
 4.9751 5.0782 5.1443 5.1878 5.2119 5.2135 5.1971 5.1886 5.1761 5.1557
 5.1258 5.0655 5.0115 4.9735 4.9372 4.8804 4.8091 4.7475 4.6827 4.6175
 4.5360 4.4585 4.3901 4.3075 4.2263 4.1587 4.1159 4.0969 4.0883 4.0785
 4.0534 4.0201 3.9971 3.9904 3.9973 4.0069 4.0215 4.0425 4.0737 4.1184
 4.1641 4.2008 4.2237 4.2501 4.2907 4.3457 4.4002 4.4528 4.5233 4.6036
 4.6875 4.7643 4.8246 4.9057 5.0014 5.0865 5.1618 5.2302 5.2942 5.3437
 5.3768 5.3870 5.3649 5.3125 5.2647 5.2383 5.2317 5.2211 5.1798 5.0871
 4.9754 4.9043 4.8739 4.8659 4.8592 4.8194 4.7564 4.7065 4.6780 4.6680
 4.6561 4.6383 4.6035 4.5460 4.4947 4.4610 4.4507 4.4248 4.3900 4.3677
 4.3371 4.3037 4.2726 4.2358 4.1802 4.1330 4.1038 4.0865 4.0702 4.0698
 4.0822 4.1092 4.1439 4.1827 4.2141 4.2307 4.2320 4.2272 4.2261 4.2236
 4.2191 4.2135 4.2216 4.2385 4.2326 4.2141 4.2014 4.1998 4.2199 4.2677
 4.3207 4.3684 4.4104 4.4510 4.4953 4.5432 4.5828 4.6170 4.6829 4.7686
 4.8439 4.8787 4.8918 4.9176 4.9571 4.9900 5.0058 5.0087 5.0051 5.0068
 5.0013 4.9741 4.9229 4.8677 4.8194 4.7712 4.7327 4.7007 4.6728 4.6428
 4.6140 4.5938 4.5768 4.5697 4.5797 4.5998 4.6172 4.6346 4.6491 4.6692
 4.7122 4.7607 4.7762 4.7791 4.7918 4.8160 4.8323 4.8349 4.8219 4.8035
 4.7810 4.7555 4.7468 4.7470 4.7578 4.7835 4.8094 4.8205 4.8213 4.8047
 4.7787 4.7543 4.7401 4.7343 4.7251 4.7138 4.6909 4.6491 4.6030 4.5596
 4.5104 4.4681 4.4414 4.4387 4.4527 4.4924 4.5480 4.5950 4.6447 4.7133
 4.7657 4.8197 4.8846 4.9461 5.0038 5.0385 5.0789 5.1478 5.2250 5.3054
 5.3704 5.4155 5.4360 5.4344 5.4493 5.5066 5.5736 5.6565 5.7410 5.8171
 5.8832 5.9317 5.9460 5.9246 5.8907 5.8526 5.8123 5.7901 5.7850 5.7488
 5.6766 5.5988 5.5358 5.4699 5.4209 5.3787 5.3161 5.2480 5.1763 5.0867
 4.9814 4.8745 4.7843 4.7142 4.6585 4.6216 4.5888 4.5627 4.5585 4.5713
 4.5934 4.6298 4.6784 4.7230 4.7762 4.8505 4.9206 4.9867 5.0455 5.0916
 5.1335 5.1812 5.2415 5.2934 5.3208 5.3417 5.3413 5.3277 5.3206 5.3098
 5.2979 5.2842 5.2729 5.2832 5.3128 5.3316 5.3155 5.2866 5.2511 5.2206
 5.2026 5.1884 5.1774 5.1698 5.1693 5.1598 5.1623 5.1639 5.1442 5.0936
 5.0272 4.9796 4.9751 5.0022 5.0374 5.0656 5.0890 5.1245 5.1643 5.1952
 5.2305 5.2518 5.2456 5.2281 5.2054 5.1721 5.1546 5.1572 5.1447 5.1242
 5.0993 5.0525 5.0143 5.0115 5.0344 5.0642 5.0997 5.1298 5.1443 5.1411
 5.1211 5.0921 5.0765 5.0735 5.0556 5.0187 4.9742 4.9283 4.8660 4.7969
 4.7443 4.7004 4.6629 4.6416 4.6471 4.6667 4.7230 4.8184 4.9154 4.9854
 5.0099 5.0160 5.0419 5.0939 5.1635 5.2475 5.3190 5.3967 5.4950 5.5836
 5.6639 5.7445 5.8151 5.8674 5.9250 5.9876 6.0317 6.0360 6.0171 5.9996
 5.9675 5.9417 5.9602 6.0078 6.0420 6.0658 6.0764 6.0628 6.0342 5.9869
 5.9188 5.8404 5.7675 5.7127 5.6511 5.5763 5.5019 5.4548 5.4197 5.3756
 5.3396 5.3117 5.2903 5.2756 5.2452 5.1992 5.1542 5.1277 5.1210 5.1309
 5.1533 5.1877 5.2421 5.3076 5.3644 5.3879 5.3796 5.3461 5.3047 5.2963
 5.2798 5.2342 5.1752 5.0862 4.9875 4.9118 4.8606 4.8324 4.8257 4.8250
 4.8321 4.8557 4.8954 4.9373 4.9819 5.0334 5.0987 5.1944 5.3108 5.4303
 5.5298 5.6053 5.6728 5.7254 5.7646 5.7989 5.8253 5.8444 5.8688 5.9044
 5.9421 5.9729 5.9666 5.9257 5.8962 5.9467 6.0643 6.2166 6.3738 6.5121
 6.6269 6.7095 6.7468 6.7441 6.7175 6.6758 6.6158 6.5451 6.4743 6.4095
 6.3434 6.2688 6.1848 6.0793 5.9533 5.8349 5.7376 5.6684 5.6203 5.5686
 5.4915 5.3988 5.3104 5.2226 5.1344 5.0694 5.0370 5.0343 5.0447 5.0508
 5.0499 5.0438 5.0627 5.1254 5.1881 5.2141 5.1918 5.1471 5.0989 5.0474
 5.0113 4.9998 4.9951 5.0052 5.0319 5.0679 5.0914 5.0876 5.0825 5.0954
 5.1313 5.1749 5.1962 5.2098 5.2332 5.2627 5.2943 5.3273 5.3674 5.4087
 5.4620 5.5369 5.6265 5.7134 5.8082 5.9331 6.0729 6.1939 6.3001 6.3875
 6.4368 6.4533 6.4567 6.4627 6.4619 6.4362 6.4031 6.3533 6.2816 6.2182
 6.1867 6.1774 6.1558 6.1229 6.0993 6.0989 6.1064 6.1113 6.1227 6.1344
 6.1385 6.1160 6.0658 6.0021 5.9441 5.8957 5.8595 5.8424 5.8318 5.8176
 5.8020 5.7881 5.7764 5.7687 5.7522 5.7240 5.7055 5.7069 5.7221 5.7536
 5.7904 5.8025 5.7796 5.7334 5.6902 5.6759 5.6873 5.7170 5.7706 5.8298
 5.8322 5.7708 5.6758 5.5560 5.4266 5.3271 5.2831 5.2631 5.2405 5.2458
 5.2982 5.3685 5.4147 5.4231 5.4041 5.3824 5.3727 5.3729 5.3746 5.4159
 5.5180 5.6111 5.6420 5.6405 5.6370 5.6293 5.5953 5.5585 5.5695 5.6471
 5.7538 5.8335 5.8845 5.9391 6.0102 6.0662 6.0848 6.0479 5.9703 5.8921
 5.8625 5.8803 5.9097 5.9677 6.0653 6.1572 6.2068 6.2277 6.2318 6.2456
 6.3162 6.4272 6.5016 6.4960 6.4225 6.3219 6.2395 6.1743 6.0832 5.9819
 5.9181 5.9004 5.9203 5.9356 5.9132 5.8623 5.8293 5.8694 5.9909 6.1562
 6.2942 6.3116 6.2201 6.1130 6.0176 5.9035 5.7870 5.7001 5.6459 5.5996
 5.5479 5.4848 5.4229 5.3742 5.3324 5.2996 5.2852 5.2817 5.2961 5.3405
 5.3989 5.4663 5.5611 5.6729 5.7559 5.8015 5.8465 5.8962 5.9390 5.9777
 6.0119 6.0350 6.0604 6.1034 6.1405 6.1534 6.1525 6.1398 6.1185 6.1085
 6.1230 6.1594 6.1987 6.2319 6.2487 6.2376 6.1894 6.1226 6.0712 6.0341
 6.0043 5.9721 5.9282 5.8781 5.8406 5.8357 5.8393 5.8283 5.8199 5.8459
 5.8980 5.9315 5.9422 5.9677 6.0254 6.0997 6.1696 6.2365 6.3086 6.3628
 6.3882 6.3661 6.3075 6.2727 6.2767 6.2646 6.2128 6.1405 6.0545 5.9737
 5.9241 5.9148 5.9335 5.9710 6.0398 6.1192 6.1488 6.1194 6.0948 6.1030
 6.1329 6.1836 6.2349 6.2490 6.2160 6.1671 6.1173 6.0714 6.0247 6.0061
 5.9985 5.9661 5.9302 5.9254 5.9311 5.9427 5.9899 6.0371 6.0760 6.1056
 6.1163 6.1155 6.1029 6.0440 5.9977 6.0727 6.2478 6.4167 6.5487 6.6729
 6.8077 6.9751 7.0973 7.0855 6.9721 6.7975 6.6021 6.4500 6.3339 6.2322
 6.1637 6.1426 6.1720 6.2215 6.2207 6.1694 6.1499 6.1808 6.2078 6.1976
 6.2010 6.2394 6.2473 6.1866 6.0689 5.9344 5.8023 5.6634 5.5280 5.4389
 5.4064 5.3837 5.3491 5.3357 5.3764 5.4575 5.5427 5.5891 5.6164 5.6715
 5.7190 5.7262 5.7082 5.6906 5.6805 5.6978 5.7205 5.7076 5.6617 5.5752
 5.4841 5.4334 5.4211 5.4258 5.4365 5.4497 5.4466 5.4288 5.4258 5.4238
 5.4124 5.4517 5.5591 5.6762 5.7712 5.8326 5.8601 5.8652 5.9065 5.9964
 6.0956 6.1753 6.2648 6.3870 6.5261 6.6430 6.6420 6.5516 6.4788 6.4765
 6.5295 6.5913 6.6518 6.7367 6.8033 6.7621 6.6053 6.4492 6.3563 6.2596
 6.1332 6.0492 6.0176 5.9640 5.8580 5.7610 5.6873 5.6420 5.6199 5.5617
 5.4917 5.4721 5.4935 5.5245 5.5391 5.5364 5.5424 5.5488 5.5899 5.6124
 5.5600 5.4905 5.4631 5.4725 5.4728 5.4445 5.4762 5.6053 5.7870 5.9716
 6.0820 6.1291 6.2247 6.4556 6.6536 6.7616 6.8075 6.7634 6.7332 6.8108
 6.8947 6.9107 6.9319 7.0329 7.1801 7.2596 7.2532 7.1621 6.9928 6.8335
 6.7036 6.5348 6.3375 6.1073 5.8868 5.7176 5.6110 5.5624 5.5358 5.5008
 5.4673 5.4634 5.4600 5.5079 5.6192 5.7090 5.8101 5.9668 6.0750 6.0934
 6.1448 6.2804 6.4280 6.5210 6.6172 6.7783 6.9532 7.0648 7.0822 7.0305
 7.0221 7.0238 6.8988 6.7792 6.7997 6.8965 6.9704 6.9279 6.7712 6.6555
 6.6226 6.6178 6.6687 6.7651 6.8000 6.7281 6.6749 6.7388 6.8297 6.7904
 6.6694 6.5855 6.5411 6.4687 6.4191 6.3831 6.3429 6.3244 6.3044 6.2279
 6.1719 6.2123 6.2575 6.2303 6.1680 6.0390 5.9555 5.9177 5.8605 5.7338
 5.6372 5.5905 5.5936 5.6043 5.5753 5.5124 5.4584 5.4225 5.3949 5.3529
 5.2992 5.3191 5.3866 5.4362 5.4699 5.4611 5.4502 5.3845 5.2830 5.2449
 5.2623 5.2838 5.2668 5.2689 5.3580 5.4651 5.4913 5.4878 5.4735 5.5005
 5.6166 5.8345 6.0569 6.1852 6.2416 6.3106 6.3870 6.3433 6.2596 6.1910
 6.1187 6.0571 5.9813 5.9022 5.8742 5.8376 5.8321 5.7855 5.7445 5.7817
 5.9134 6.1393 6.4072 6.7170 6.8360 6.6351 6.4201 6.5204 6.8237 7.1175
 7.2929 7.3822 7.2449 6.9001 6.6196 6.4843 6.3036 6.0973 5.9974 5.9264
 5.7589 5.5963 5.5552 5.5933 5.6255 5.6803 5.7112 5.6573 5.6122 5.7040
 5.8176 5.8664 5.8461 5.7173 5.5043 5.3240 5.2430 5.2480 5.1445 4.9424
 4.8176 4.8145 4.8495 4.8518 4.8126 4.8128 4.8455 4.8043 4.7398 4.7537
 4.8385 4.8868 4.8648 4.8382 4.8687 4.9691 5.0722 5.0861 5.1252 5.3039
 5.5429 5.6320 5.6340 5.7619 6.0661 6.4073 6.4609 6.2672 6.2946 6.5473
 6.8436 7.2364 7.5338 7.5235 7.5531 7.5480 7.4217 7.2781 7.0703 6.9385
 6.8427 6.6707 6.5023 6.4634 6.4735 6.5027 6.5159 6.3416 6.0763 5.9235
 5.9495 6.0977 6.2174 6.3224 6.4684 6.5488 6.5336 6.5497 6.5852 6.4820
 6.2556 6.0361 5.8688 5.7803 5.7771 5.8059 5.8487 5.9471 6.0030 6.1446
 6.4728 6.8368 7.1215 7.1376 6.9901 7.0446 7.2128 7.1674 6.9868 6.7818
 6.6086 6.5623 6.5957 6.6372 6.5414 6.3939 6.2625 6.0191 5.8396 5.7955
 5.7344 5.6392 5.5522 5.4685 5.3940 5.3641 5.3433 5.2177 5.1394 5.1632
 5.2825 5.3853 5.3215 5.2275 5.2614 5.3526 5.3478 5.2700 5.2053 5.2337
 5.2596 5.2055 5.1500 5.2269 5.3969 5.4422 5.5340 5.7800 5.9503 6.0220
 6.1131 6.1602 6.1160 6.1690 6.2312 6.3703 6.6775 7.0008 7.1541 7.2415
 7.2892 7.3264 7.5869 8.0195 8.1763 8.0255 7.9352 8.0010 7.9525 7.7512
 7.4400 7.2363 7.0680 6.7080 6.3578 6.0835 5.8747 5.7490 5.6020 5.4044
 5.3123 5.3685 5.3266 5.2719 5.4124 5.6184 5.7340 5.8065 5.8803 5.8946
 5.8901 5.8854 5.8715 5.8245 5.7611 5.8077 5.9225 6.0208 5.9956 5.9026
 5.8270 5.7145 5.4630 5.3321 5.2703 5.1424 4.9764 4.8172 4.7097 4.6365
 4.5758 4.5866 4.6593 4.7517 4.8303 4.8583 4.7980 4.7099 4.6767 4.7199
 4.7967 4.8638 4.8847 4.8349 4.8197 4.7902 4.7910 4.9102 5.0079 5.0097
 4.9303 4.8639 4.8175 4.8055 4.8330 4.9077 5.0711 5.2337 5.2995 5.3571
 5.5749 5.7574 5.7561 5.6052 5.4931 5.4966 5.4205 5.2973 5.2722 5.3296
 5.3907 5.5158 5.6856 5.7461 5.7082 5.5844 5.3910 5.3490 5.5157 5.6410
 5.6813 5.6130 5.5150 5.5406 5.6115 5.7740 5.9623 5.9968 5.9588 5.9089
 5.7409 5.4806 5.2592 5.1699 5.1376 5.0913 5.1114 5.1763 5.1794 5.2555
 5.5348 5.8377 5.9963 5.9572 5.9143 5.8697 5.8642 6.0030 6.2269 6.2886
 6.1916 6.2257 6.2653 6.1859 6.0503 5.9068 5.7969 5.7085 5.7396 5.9357
 6.1181 6.2059 6.2211 6.1986 6.1510 6.1147 6.1215 6.0460 5.9062 5.8656
 5.9249 6.0997 6.3644 6.4427 6.2567 6.1686 6.2319 6.1969 6.0219 5.8923
 5.7713 5.6390 5.5927 5.4994 5.3996 5.3626 5.3443 5.4441 5.5882 5.6037
 5.5806 5.7719 6.0402 6.2443 6.4107 6.5731 6.5393 6.4907 6.4428 6.2239
 6.0662 6.0373 6.0330 6.0578 6.0483 5.9964 6.0118 5.9658 5.8137 5.7849
 5.7668 5.7487 5.7096 5.7053 5.7495 5.6673 5.6162 5.6163 5.5636 5.5097
 5.7507 6.1219 6.1521 5.9335 5.9589 6.3046 6.4253 6.2817 6.1989 6.1521
 6.0503 6.1152 6.3369 6.3636 6.2597 6.2169 6.3474 6.6139 6.7141 6.3381
 6.0862 6.1429 6.3083 6.5177 6.7707 6.9025 6.7993 6.6825 6.6461 6.5931
 6.4910 6.4466 6.4298 6.2785 6.0166 5.7722 5.6296 5.4874 5.3790 5.3394
 5.2444 5.0961 4.9971 5.0380 5.1934 5.2576 5.2515 5.2030 4.9486 4.7785
 4.7505 4.6510 4.5030 4.4182 4.4463 4.4153 4.2397 4.0983 4.1004 4.0952
 4.0633 4.1099 4.1877 4.2046 4.1700 4.1418 4.1854 4.1909 4.1026 4.0339
 4.0219 4.0202 4.1113 4.3465 4.5802 4.8060 5.2072 5.4879 5.3824 5.2368
 5.4195 5.7425 5.9443 6.1367 6.3390 6.3073 6.1165 5.9096 5.7789 5.8152
 6.0285 6.2521 6.2659 6.0373 6.0105 6.2266 6.3850 6.4897 6.3933 6.1076
 5.9732 5.9710 5.9014 5.8319 5.8829 5.8888 5.7299 5.5073 5.2864 5.0958
 5.0572 5.0508 5.0501 5.0733 5.0852 5.0342 4.8827 4.7522 4.5922 4.3814
 4.2955 4.3752 4.3114 4.1914 4.1318 4.0375 3.9758 4.0248 4.0534 4.0040
 3.9799 3.9624 3.9478 3.9647 3.9805 4.0873 4.2425 4.4107 4.7399 4.9736
 4.9674 5.0153 5.1842 5.6080 5.9430 5.9499 6.1161 6.2116 6.0948 5.9658
 5.9330 6.0490 6.1422 6.3054 6.4303 6.4436 6.4308 6.2254 5.8883 5.8163
 5.9152 5.9287 5.8967 5.8634 5.8337 5.7651 5.6720 5.6267 5.6005 5.4746
 5.3059 5.1747 5.1246 5.0859 4.9865 4.8495 4.7260 4.5736 4.4062 4.2977
 4.2285 4.2059 4.1912 4.1376 4.0885 3.9670 3.8353 3.8250 3.9717 4.1113
 4.1370 4.1020 4.1285 4.2608 4.4375 4.5992 4.7011 4.7684 4.8008 4.8382
 4.8583 4.9451 5.0818 5.1633 5.2752 5.4364 5.5115 5.4690 5.4502 5.5161
 5.6643 5.7915 5.7402 5.7466 5.8271 5.9045 5.8738 5.7043 5.5894 5.4527
 5.2118 5.0630 5.1722 5.2198 5.2129 5.2802 5.2996 5.3416 5.4601 5.6211
 5.9878 6.5870 7.1058 7.3245 7.2436 7.4293 8.0076 8.0413 7.6445 7.5499
 7.5807 7.5460 7.4624 7.0899 6.5295 6.1911 6.0741 5.9616 5.9042 5.9662
 6.0162 6.0258 6.0037 5.9319 5.7486 5.5927 5.5454 5.5698 5.7039 5.7512
 5.5993 5.3525 5.2558 5.2573 5.2047 5.1485 5.1513 5.0188 4.8724 4.8726
 4.9981 5.0144 4.9550 4.8264 4.6650 4.4690 4.2615 4.1075 4.0101 3.9252
 3.8701 3.8147 3.7629 3.7165 3.6895 3.6640 3.5841 3.5645 3.5984 3.5899
 3.5620 3.5796 3.6141 3.5962 3.4951 3.4130 3.3668 3.4064 3.4864 3.4966
 3.5397 3.6233 3.6667 3.7794 3.9264 4.1322 4.5569 5.1208 5.5107 5.6981
 5.9503 6.1663 6.2317 6.2647 6.5474 7.0496 7.3674 7.1829 6.7430 6.4588
 6.6340 7.0149 7.2848 7.4468 7.3894 7.1014 6.8155 6.6700 6.5385 6.2488
 5.9424 5.7731 5.8273 6.0252 6.0342 5.8360 5.8781 5.9194 5.8030 5.6536
 5.3433 4.9669 4.6541 4.4874 4.3476 4.1001 3.9354 3.9439 4.0535 4.1362
 4.1412 3.9973 3.9022 3.9619 4.0417 4.0551 4.0667 4.0708 4.0953 4.0553
 3.9253 3.7258 3.6079 3.5597 3.4998 3.4252 3.3606 3.3526 3.3764 3.4225
 3.4331 3.3317 3.2062 3.1218 3.1088 3.1190 3.2191 3.4615 3.7123 3.7322
 3.7069 3.6462 3.5368 3.5565 3.6067 3.6507 3.6998 3.7007 3.6997 3.7342
 3.8047 3.9182 4.0235 4.0462 4.0267 4.0382 4.0250 4.0375 3.9859 3.9095
 3.9072 3.9454 4.0204 4.2215 4.3492 4.2565 4.2058 4.2175 4.2244 4.2756
 4.2393 4.1679 4.1516 4.1980 4.1789 4.1608 4.3344 4.5823 4.7221 4.8168
 4.9806 5.3014 5.4829 5.3306 5.1992 5.2739 5.5447 6.0355 6.6160 6.7084
 6.5947 6.8581 7.1413 7.0602 6.8724 6.5833 6.2227 6.0396 5.9622 5.8479
 5.6628 5.4382 5.2611 5.2790 5.2552 5.1294 5.1536 5.1841 5.0769 5.0142
 4.9037 4.6912 4.6336 4.6705 4.5882 4.4498 4.3872 4.4326 4.5898 4.5776
 4.3528 4.1071 3.9077 3.8717 3.8315 3.7396 3.7222 3.7165 3.6901 3.6128
 3.5517 3.5737 3.6575 3.6797 3.7567 3.9129 3.9875 3.9388 3.9464 4.0241
 4.1202 4.3136 4.4479 4.5609 4.7965 5.0797 5.3392 5.6495 6.0214 6.1813
 6.2742 6.5056 6.8739 7.3652 7.8710 7.8788 7.6357 7.6539 7.6236 7.4979
 7.5698 7.5023 7.2374 6.7351 6.3011 6.0756 5.7610 5.3397 4.9899 4.8441
 4.8322 4.9556 5.1094 5.1395 4.9419 4.6360 4.5300 4.4868 4.3474 4.3207
 4.3195 4.2725 4.2751 4.2685 4.0679 3.8148 3.7110 3.7627 3.7681 3.6659
 3.5570 3.5234 3.4886 3.4485 3.4476 3.4608 3.4990 3.6150 3.7358 3.8728
 4.0912 4.1512 4.1933 4.3176 4.3539 4.2876 4.2096 4.2395 4.2895 4.3978
 4.4516 4.3241 4.1416 4.0515 4.0434 4.0662 4.0263 4.0208 4.0695 4.0000
 3.9029 3.9417 4.0821 4.0445 3.8482 3.7235 3.7204 3.7302 3.8355 4.0100
 4.1524 4.2537 4.2254 4.2701 4.4403 4.6101 4.7160 4.5758 4.4653 4.4592
 4.3505 4.3127 4.4192 4.5122 4.5484 4.6631 4.6802 4.6677 4.6816 4.6966
 4.6717 4.4682 4.2941 4.1909 4.0128 3.9404 4.0316 4.1535 4.2347 4.4057
 4.5222 4.5740 4.6898 4.6510 4.4481 4.3797 4.3047 4.1695 4.1136 3.9213
 3.6854 3.6023 3.5538 3.5050 3.5204 3.4093 3.2828 3.3187 3.3433 3.2752
 3.3170 3.4059 3.4053 3.4508 3.5585 3.8635 4.2661 4.4929 4.6215 4.6127
 4.4776 4.3904 4.2959 4.1331 4.0541 4.0985 4.2132 4.2558 4.1285 3.9325
 3.8609 3.8514 3.8383 3.8203 3.8024 3.6623 3.5423 3.5334 3.5624 3.6317
 3.7312 3.8329 4.0058 4.0330 3.9467 3.9711 4.0283 4.0186 3.9081 3.8131
 3.6891 3.5346 3.5437 3.5950 3.5089 3.3354 3.1264 2.9513 2.8775 2.8737
 2.8742 2.9064 2.9612 3.0221 3.1026 3.1489 3.2516 3.4237 3.4431 3.5453
 3.7894 3.9924 4.2229 4.4477 4.6535 4.8300 4.9038 4.8473 4.8093 4.7943
 4.7783 4.8603 4.9881 5.0657 5.0359 5.1444 5.2669 5.0687 4.7812 4.5857
 4.4440 4.3702 4.4631 4.6030 4.6814 4.6806 4.6234 4.5011 4.3295 4.2654
 4.2272 4.1475 4.0395 3.8534 3.6374 3.4727 3.2930 3.2355 3.3680 3.5727
 3.6783 3.5716 3.5290 3.7484 3.9675 4.0411 3.9286 3.8703 3.9671 3.9612
 3.9179 3.8837 3.9497 4.1407 4.2041 4.1628 4.2290 4.4048 4.4671 4.4594
 4.4919 4.5430 4.6612 4.7954 5.0061 5.2172 5.0965 4.7894 4.5322 4.4929
 4.4627 4.4579 4.5259 4.4733 4.2509 3.9946 3.8755 3.9211 4.0742 4.1434
 4.1144 3.9983 3.8234 3.7461 3.7357 3.6439 3.5726 3.5251 3.4535 3.4055
 3.3180 3.2482 3.2387 3.2282 3.1845 3.1633 3.2490 3.3182 3.3111 3.3114
 3.3082 3.3174 3.3487 3.3434 3.3810 3.4635 3.5141 3.6575 3.9321 4.0252
 4.0807 4.6144 5.1809 5.4622 5.7971 5.9612 5.8300 5.5294 5.2781 5.3198
 5.5124 5.6466 5.6690 5.6119 5.4668 5.3728 5.3035 5.1631 4.9259 4.7338
 4.5809 4.3986 4.2619 4.2084 4.2341 4.2807 4.3203 4.2224 4.0631 3.9468
 3.8751 3.9862 4.1933 4.2721 4.1716 4.1465 4.0880 3.9772 3.9603 3.9649
 3.9274 3.7294 3.5894 3.5745 3.5659 3.4988 3.4033 3.2922 3.1862 3.1209
 3.0940 3.0008 2.8481 2.7357 2.6255 2.4945 2.4277 2.3988 2.4007 2.4304
 2.3935 2.3319 2.2711 2.2491 2.3229 2.3939 2.4279 2.3789 2.3551 2.4755
 2.6346 2.8468 2.9873 3.0477 3.0790 3.1620 3.2715 3.4576 3.7917 4.0462
 3.9999 3.9399 4.0718 4.3233 4.5453 4.5902 4.5408 4.3485 4.2527 4.1878
 4.0251 3.9505 3.8734 3.8104 3.8222 3.9077 3.9403 3.7866 3.6506 3.6380
 3.8640 4.0709 4.0184 3.9866 3.9750 3.9213 4.0646 4.1562 3.9107 3.6874
 3.5747 3.2705 3.0328 3.0064 3.1276 3.2347 3.2116 3.1153 3.0513 3.0150
 3.0277 3.0963 3.1201 3.0655 2.9921 2.9544 2.9350 2.9562 2.9993 2.8739
 2.7381 2.6892 2.7434 2.7924 2.6764 2.5289 2.4584 2.4422 2.4484 2.4343
 2.3984 2.4499 2.6193 2.7635 2.8417 2.8871 2.9455 2.9754 2.9083 2.8494
 2.8432 2.9291 3.1110 3.2053 3.1519 3.0811 3.0176 2.9118 2.8361 2.8160
 2.7562 2.7090 2.6841 2.6247 2.6516 2.7708 2.8427 2.7881 2.6226 2.5256
 2.5837 2.6799 2.7786 2.8279 2.8062 2.7356 2.6934 2.8153 2.9973 3.0705
 3.0974 3.1545 3.2923 3.3695 3.2953 3.1980 3.1663 3.1472 3.1127 3.1441
 3.2179 3.1921 3.0948 2.9804 2.8757 2.8426 2.8836 2.8944 2.9502 3.0293
 3.1197 3.1393 3.0208 2.9921 3.0248 2.9264 2.8521 2.8904 2.9535 3.1263
 3.3479 3.2982 3.2504 3.3850 3.4652 3.5576 3.9257 4.4041 4.5150 4.4378
 4.4818 4.8920 5.4100 5.5360 5.3302 5.0342 4.9477 4.9449 4.8263 4.6181
 4.5128 4.4753 4.3142 4.1601 4.1987 4.3726 4.3562 4.2411 4.4245 4.7953
 5.0007 4.8195 4.5375 4.5043 4.5634 4.4260 4.2348 4.2080 4.2928 4.2250
 4.0715 4.0262 4.0979 4.1115 3.9807 3.8812 3.7069 3.4528 3.2440 3.1190
 3.2373 3.3882 3.4576 3.4846 3.3613 3.1429 3.0091 3.0827 3.2206 3.2526
 3.1914 3.1003 3.0303 2.9237 2.7702 2.7282 2.8846 3.0276 2.9780 2.7940
 2.7196 2.7813 2.9205 2.9130 2.7712 2.6864 2.6641 2.7130 2.7872 2.7992
 2.8245 2.8449 2.7633 2.6667 2.6627 2.7553 2.8937 2.9298 2.8980 2.8621
 2.7733 2.6862 2.6485 2.7292 2.8712 2.9117 2.7963 2.6567 2.5745 2.5428
 2.5769 2.6064 2.6266 2.6006 2.6518 2.7120 2.6213 2.5705 2.7164 2.8451
 2.8594 2.9042 2.9012 2.8272 2.8781 2.9206 2.9070 2.9638 3.0778 3.1042
 3.1587 3.4057 3.7381 3.9029 3.8284 3.8503 3.9678 3.9656 3.9184 3.9838
 4.1484 4.2349 4.1442 4.0484 3.8590 3.6701 3.5556 3.4013 3.2579 3.1862
 3.1933 3.1750 3.1964 3.2773 3.2891 3.3541 3.3712 3.2440 3.1749 3.1256
 3.1360 3.1734 3.1033 2.9644 2.9170 3.0097 3.1318 3.1817 3.1489 3.1852
 3.4742 3.6930 3.6069 3.3394 3.2033 3.2555 3.2734 3.2124 3.0775 2.9713
 2.9500 2.8963 2.8917 2.8535 2.7242 2.6197 2.5895 2.5877 2.5325 2.4741
 2.3874 2.3211 2.3282 2.4341 2.5011 2.4725 2.4130 2.3462 2.3558 2.3340
 2.2488 2.2074 2.1735 2.1146 2.0345 1.9345 1.8286 1.8151 1.9080 2.0118
 1.9968 1.9559 1.9498 1.9370 1.8812 1.8521 1.8268 1.7948 1.8371 1.8985
 1.9151 1.8938 1.8660 1.9079 1.9917 2.0720 2.1111 2.0956 2.0348 2.0389
 2.1422 2.1741 2.1664 2.2686 2.3725 2.3995 2.4010 2.3221 2.2543 2.2582
 2.3174 2.4480 2.5189 2.5059 2.4209 2.3362 2.3712 2.5105 2.5022 2.4399
 2.4168 2.3839 2.3204 2.2667 2.2719 2.2507 2.3082 2.4606 2.4793 2.4303
 2.4603 2.4708 2.4149 2.3858 2.4710 2.5093 2.5119 2.5628 2.5941 2.5876
 2.4766 2.3195 2.2231 2.1125 1.9938 1.9504 1.9801 2.0841 2.1368 2.1180
 2.1029 2.1307 2.1912 2.2267 2.2013 2.1000 1.9784 1.9278 1.9331 1.9546
 2.0175 2.0525 2.0497 2.0645 2.0932 2.1565 2.2508 2.2842 2.3294 2.4630
 2.5536 2.5933 2.6132 2.6433 2.6778 2.7589 2.8240 2.8995 2.9983 3.0398
 3.2372 3.6303 3.9645 3.9890 3.9992 3.9830 3.9708 4.1694 4.3739 4.4808
 4.6594 5.0028 5.1775 5.0367 4.7161 4.3021 4.0374 3.8638 3.7166 3.6602
 3.7624 3.9072 3.8764 3.8464 3.9245 3.7495 3.5079 3.3828 3.3583 3.4034
 3.3312 3.2195 3.0954 2.9927 2.9253 2.8367 2.6978 2.6205 2.7400 2.9205
 3.0779 2.9900 2.7921 2.6560 2.5823 2.5127 2.4920 2.4187 2.2577 2.1809
 2.2098 2.1690 2.1081 2.0895 2.0184 1.9175 1.8430 1.7748 1.7173 1.6966
 1.6991 1.7428 1.7861 1.7753 1.7410 1.6674 1.6571 1.7581 1.8791 1.9198
 1.9029 1.9665 2.1076 2.2294 2.2795 2.2298 2.2182 2.2299 2.1871 2.1651
 2.1331 2.0715 2.0066 1.9553 1.8788 1.8418 1.8893 1.9528 2.0204 2.0619
 2.0474 2.0282 2.0072 1.9898 2.0153 2.1047 2.2282 2.3252 2.3844 2.4845
 2.5916 2.5771 2.6056 2.5990 2.5440 2.6235 2.7082 2.7414 2.7308 2.6558
 2.5907 2.5685 2.5323 2.6242 2.7701 2.8481 2.9013 2.9736 2.9433 2.8273
 2.8748 3.1575 3.3084 3.1811 3.1201 3.1782 3.2616 3.2350 3.1576 3.2790
 3.4943 3.4462 3.1603 3.0063 2.9627 2.8916 2.8625 2.8666 2.9068 2.8878
 2.7690 2.6998 2.6666 2.7535 2.9147 3.0289 3.0717 2.9756 2.9056 2.9503
 3.0378 3.1074 2.9871 2.9071 2.9805 2.9730 2.9219 2.8729 2.8982 2.9825
 3.0145 2.9796 2.9143 2.8580 2.8058 2.8657 2.9618 2.9220 2.8932 2.9583
 2.9971 2.8074 2.5763 2.4932 2.4613 2.4176 2.2740 2.1846 2.1861 2.1864
 2.1366 2.0903 2.0439 1.9943 1.9274 1.8564 1.8299 1.8449 1.7961 1.7348
 1.7304 1.7347 1.7051 1.7122 1.7969 1.8709 1.8562 1.7621 1.6629 1.5656
 1.4720 1.4303 1.4399 1.4762 1.5238 1.5284 1.4857 1.4580 1.4325 1.4174
 1.4498 1.4428 1.3757 1.3311 1.3274 1.3462 1.3582 1.3960 1.3738 1.2878
 1.2321 1.2111 1.1966 1.1877 1.1381 1.0949 1.1169 1.1406 1.1462 1.1589
 1.1623 1.1733 1.1770 1.2022 1.2518 1.2420 1.1770 1.1101 1.0992 1.1570
 1.2336 1.2732 1.2472 1.2420 1.2824 1.3266 1.3225 1.2877 1.3155 1.3864
 1.3745 1.3380 1.3466 1.3765 1.4546 1.5610 1.6305 1.6424 1.6252 1.5799
 1.4888 1.3968 1.3646 1.3709 1.4066 1.4579 1.4937 1.5043 1.5025 1.4884
 1.5300 1.5830 1.6157 1.6649 1.7532 1.8173 1.8725 1.9055 1.9101 1.9807
 2.0690 2.1236 2.2546 2.3700 2.3322 2.3693 2.4400 2.3761 2.3647 2.5170
 2.6609 2.7212 2.8154 2.9574 2.9594 2.7926 2.4970 2.2491 2.1484 2.1060
 2.0924 2.1601 2.1822 2.0321 1.8597 1.7906 1.7702 1.8483 1.9231 1.8793
 1.8135 1.8408 1.8368 1.7939 1.8318 1.9103 1.9801 2.0782 2.2088 2.2996
 2.3594 2.5115 2.6968 2.7478 2.7057 2.7133 2.7229 2.8066 2.9768 3.1771
 3.4904 3.7024 3.5131 3.1482 2.9743 2.8759 2.7347 2.7406 2.7773 2.7277
 2.7660 2.7866 2.6704 2.4801 2.2940 2.2327 2.2094 2.1781 2.1015 2.0163
 1.9434 1.9048 1.8975 1.9176 1.9545 1.9205 1.8418 1.9023 1.9776 2.0126
 2.0463 2.1098 2.1414 2.0736 2.0346 1.9681 1.9242 1.9684 1.9359 1.8294
 1.8281 1.9370 1.9768 1.8791 1.7499 1.6463 1.6490 1.6793 1.6697 1.6686
 1.6267 1.5060 1.4498 1.5107 1.5890 1.6928 1.6439 1.4685 1.3892 1.3879
 1.4668 1.6122 1.6323 1.5561 1.5599 1.6121 1.6668 1.7092 1.6739 1.6405
 1.6063 1.5777 1.6478 1.8005 1.9300 2.0593 2.1726 2.1314 1.9622 1.8116
 1.7726 1.8645 2.0210 2.0882 2.0744 2.1207 2.2441 2.3936 2.4898 2.4170
 2.2571 2.1582 2.1835 2.2512 2.2636 2.1626 2.1251 2.3085 2.6136 2.8348
 2.8308 2.6717 2.5041 2.3803 2.3488 2.3369 2.3019 2.2687 2.2982 2.3948
 2.3490 2.2316 2.1903 2.1859 2.2178 2.2531 2.1966 2.0829 2.0555 2.1177
 2.1661 2.2131 2.2860 2.2349 2.1269 2.0819 2.1021 2.1913 2.1541 2.1438
 2.2396 2.3279 2.4670 2.5241 2.3141 2.1404 2.0313 1.9261 1.9026 1.9145
 1.9208 1.9295 1.9772 2.0223 2.0976 2.1439 2.0920 2.1783 2.1838 2.0596
 2.2045 2.3550 2.2348 2.1676 2.1483 2.2108 2.4126 2.4460 2.2617 2.0962
 1.9897 1.8990 1.8616 1.8682 1.8070 1.7335 1.7972 1.8626 1.8528 1.7320
 1.6030 1.5536 1.5511 1.5544 1.5379 1.5184 1.5247 1.5668 1.5851 1.5559
 1.5257 1.5156 1.4498 1.3334 1.2528 1.2544 1.3007 1.3623 1.4129 1.4037
 1.3818 1.4312 1.4626 1.3991 1.3521 1.3580 1.3671 1.3873 1.3816 1.3233
 1.2759 1.2524 1.2490 1.2234 1.1946 1.1834 1.2054 1.1901 1.1598 1.1497
 1.1248 1.1173 1.1333 1.1755 1.2225 1.2103 1.1999 1.2461 1.2600 1.2417
 1.2219 1.2263 1.2340 1.1632 1.0811 1.0600 1.0871 1.1304 1.1502 1.1475
 1.1433 1.1620 1.1779 1.1792 1.2179 1.2399 1.1590 1.0805 1.0361 0.9984
 1.0075 1.0335 1.0258 0.9656 0.9157 0.9053 0.9188 0.9512 1.0018 1.0228
 1.0352 1.0535 1.0820 1.0876 1.0659 1.0408 0.9968 0.9429 0.9065 0.9294
 0.9976 1.0694 1.1966 1.2631 1.2548 1.2928 1.3350 1.3497 1.3482 1.4092
 1.4949 1.6262 1.8169 1.9469 1.9058 1.8554 1.8592 1.8771 1.9317 1.8655
 1.6952 1.5444 1.5139 1.4960 1.4305 1.3953 1.4618 1.5419 1.5966 1.6304
 1.5999 1.5960 1.6092 1.5632 1.5427 1.6013 1.6594 1.6082 1.5293 1.4744
 1.4867 1.6211 1.7141 1.6882 1.6607 1.7381 1.7733 1.7179 1.7009 1.7017
 1.6312 1.5197 1.4289 1.4006 1.4278 1.4456 1.4498 1.4413 1.3872 1.3786
 1.4030 1.4152 1.4331 1.4386 1.4695 1.4854 1.4274 1.3405 1.2373 1.1769
 1.1766 1.1750 1.1616 1.1858 1.2326 1.2697 1.2932 1.2591 1.1971 1.1636
 1.1504 1.1440 1.1575 1.1737 1.2326 1.2643 1.1943 1.1785 1.1727 1.1730
 1.1657 1.1132 1.0718 1.0926 1.1431 1.1935 1.1991 1.1893 1.2502 1.3287
 1.3378 1.3229 1.2997 1.2815 1.3045 1.3264 1.4045 1.4618 1.3755 1.3486
 1.4360 1.3615 1.1458 1.0599 1.0557 1.0478 1.0428 1.0975 1.1582 1.1516
 1.1443 1.1730 1.1517 1.1337 1.2130 1.2594 1.2218 1.2002 1.1985 1.2577
 1.3452 1.3557 1.3121 1.3305 1.3603 1.3997 1.4440 1.4586 1.5174 1.5639
 1.6529 1.8082 1.9580 2.1044 2.1783 2.0897 1.9794 1.9854 2.0539 2.1071
 2.1607 2.1990 2.2118 2.2581 2.2555 2.1649 2.0740 1.9597 1.8560 1.7835
 1.7691 1.8295 1.8762 1.9202 1.9913 2.0296 1.9331 1.8167 1.7896 1.8457
 1.9400 1.9916 1.9946 1.9747 1.9484 1.9846 2.0020 2.0172 2.0284 1.9368
 1.8267 1.7079 1.6282 1.6248 1.5838 1.4813 1.4217 1.3750 1.2896 1.2600
 1.3137 1.3793 1.4118 1.4478 1.4910 1.5394 1.5880 1.5755 1.5939 1.6085
 1.6047 1.6355 1.6521 1.6307 1.6702 1.6936 1.6908 1.6413 1.6043 1.5605
 1.4860 1.5003 1.5491 1.5127 1.4737 1.4051 1.3622 1.3844 1.3940 1.3627
 1.3030 1.2735 1.2918 1.3007 1.2797 1.2690 1.2664 1.2753 1.2930 1.2937
 1.2914 1.3014 1.3070 1.2969 1.2902 1.2196 1.1091 1.0685 1.1066 1.1407
 1.1560 1.1929 1.2676 1.2868 1.2979 1.3175 1.2924 1.2704 1.3185 1.4038
 1.4329 1.4332 1.4618 1.4640 1.4228 1.4378 1.4467 1.3334 1.2097 1.1825
 1.1958 1.1847 1.1885 1.2002 1.2402 1.2861 1.2742 1.2698 1.2761 1.3074
 1.3291 1.3196 1.3230 1.3039 1.2390 1.2216 1.2568 1.2717 1.2957 1.3454
 1.3400 1.3223 1.2952 1.2753 1.2656 1.2566 1.2717 1.2784 1.2791 1.3073
 1.3838 1.3863 1.3161 1.3512 1.4146 1.3883 1.4002 1.4504 1.5150 1.4624
 1.3508 1.3394 1.3310 1.2864 1.2446 1.2152 1.1853 1.1884 1.2224 1.2822
 1.3406 1.3481 1.2881 1.2038 1.1324 1.0695 0.9948 0.9415 0.9600 0.9920
 0.9976 0.9965 0.9943 0.9938 1.0023 1.0596 1.1499 1.1554 1.0731 0.9909
 0.9547 0.9579 0.9955 1.0452 1.0651 1.0424 0.9631 0.8888 0.8772 0.9078
 0.8864 0.8540 0.8527 0.8586 0.8408 0.7928 0.7359 0.6771 0.6315 0.5867
 0.5495 0.5455 0.5584 0.5686 0.5734 0.5663 0.5739 0.6073 0.6395 0.6470
 0.6250 0.6036 0.6048 0.5998 0.5961 0.6079 0.6390 0.6847 0.7575 0.7966
 0.7874 0.7291 0.6824 0.7054 0.7630 0.7878 0.7562 0.6977 0.6525 0.6252
 0.6235 0.6132 0.5883 0.5843 0.6061 0.6104 0.5991 0.5913 0.6160 0.6615
 0.6798 0.6715 0.6573 0.6439 0.6185 0.6185 0.6447 0.6467 0.6350 0.6713
 0.6964 0.6611 0.6738 0.7297 0.8301 0.9636 1.0452 1.0773 1.0350 0.9661
 0.9750 1.0182 1.0718 1.1772 1.2775 1.3048 1.2867 1.2241 1.1555 1.1149
 1.0983 1.0410 0.9921 1.0020 1.0759 1.1206 1.0983 1.0877 1.1695 1.2562
 1.2496 1.2115 1.1844 1.2140 1.1360 0.9987 0.9104 0.8869 0.8864 0.8648
 0.8808 0.8846 0.8283 0.7867 0.7896 0.7970 0.7951 0.7643 0.7180 0.6617
 0.6191 0.6217 0.6190 0.5973 0.5763 0.5486 0.5262 0.5126 0.5209 0.5357
 0.5462 0.5561 0.5842 0.5995 0.6007 0.6187 0.6457 0.6592 0.6727 0.7158
 0.7721 0.7781 0.7458 0.7520 0.8115 0.8623 0.9345 1.0794 1.1688 1.1484
 1.1302 1.1908 1.2139 1.1478 1.0878 1.1060 1.2086 1.2695 1.2170 1.2214
 1.3444 1.3982 1.3594 1.3626 1.3414 1.2781 1.2113 1.1839 1.1803 1.1924
 1.2315 1.3061 1.3411 1.3402 1.3209 1.2899 1.2942 1.3737 1.4771 1.4473
 1.3313 1.2579 1.2403 1.2794 1.2731 1.2847 1.3221 1.3119 1.2882 1.2422
 1.1835 1.1520 1.1331 1.0874 1.0466 1.0448 1.0889 1.1144 1.1245 1.1163
 1.0564 0.9908 0.9727 0.9865 0.9948 1.0020 1.0510 1.0968 1.1045 1.1361
 1.1814 1.1617 1.1491 1.2012 1.2726 1.3008 1.3281 1.4579 1.5949 1.6113
 1.5621 1.4867 1.4643 1.3789 1.2957 1.2590 1.2334 1.2634 1.2424 1.1595
 1.1075 1.0668 1.0195 1.0185 1.0345 1.0171 1.0244 1.0613 1.0509 1.0537
 1.1038 1.1062 1.0590 1.0089 0.9380 0.8586 0.8062 0.8095 0.8199 0.8305
 0.8657 0.8528 0.8006 0.8335 0.9241 0.9634 0.9573 0.9115 0.9048 1.0655
 1.2687 1.3099 1.2661 1.2086 1.1576 1.1547 1.1801 1.2315 1.2497 1.2597
 1.3197 1.3218 1.2395 1.1754 1.1918 1.1927 1.1472 1.1253 1.1360 1.1752
 1.1862 1.1339 1.0859 1.0438 1.0116 0.9932 0.9880 1.0680 1.1999 1.2519
 1.1960 1.1395 1.1373 1.1236 1.0934 1.1064 1.2069 1.3139 1.3380 1.3378
 1.3660 1.3784 1.3067 1.2092 1.1619 1.1529 1.1211 1.0993 1.0935 1.0857
 1.0686 0.9980 0.9421

Temp = 217.0K  -  Data version 1
Harder, Brault, Johnston and Mount  [JGR, 102, 3861-3880, 1997]
"Temperature Dependent NO2 Cross Sections at High Spectral Resolution"
NO2 cross section [10^-19 cm^2/molecule]
  Data Smoothed with a Gaussian FWHM = 0.1 nm
    Compiled by E.P.Shettle, NRL, Washington, DC

Nvalues  1st Wave  d(wave) last Wave   Temp
          [nm]     [nm]     [nm]       [K]
  3193    390.2            0.05     549.8     217.0

 6.2042 6.2633 6.3189 6.3347 6.2883 6.2315 6.1851 6.1352 6.0826 6.0629
 6.0548 6.0193 5.9722 5.9620 5.9733 5.9861 6.0359 6.0879 6.1369 6.1770
 6.1828 6.1741 6.1698 6.1101 6.0487 6.1281 6.3289 6.5128 6.6582 6.7969
 6.9413 7.1247 7.2602 7.2391 7.1101 6.9050 6.6766 6.5217 6.4149 6.3018
 6.2110 6.1836 6.2158 6.2765 6.2761 6.2044 6.1765 6.2200 6.2544 6.2529
 6.2728 6.3191 6.3149 6.2409 6.1128 5.9677 5.8192 5.6618 5.5031 5.3973
 5.3685 5.3436 5.2953 5.2839 5.3395 5.4301 5.5215 5.5753 5.6068 5.6657
 5.7252 5.7341 5.7177 5.6947 5.6746 5.6996 5.7271 5.7090 5.6582 5.5555
 5.4535 5.3991 5.3852 5.3913 5.4036 5.4142 5.4150 5.3985 5.3963 5.3873
 5.3606 5.4103 5.5464 5.6843 5.7964 5.8694 5.9032 5.9126 5.9507 6.0447
 6.1532 6.2331 6.3238 6.4684 6.6327 6.7575 6.7546 6.6537 6.5616 6.5561
 6.6225 6.7011 6.7655 6.8524 6.9303 6.8902 6.7127 6.5335 6.4271 6.3149
 6.1649 6.0691 6.0319 5.9720 5.8505 5.7473 5.6724 5.6201 5.5900 5.5251
 5.4408 5.4239 5.4478 5.4758 5.4912 5.4921 5.5086 5.5170 5.5598 5.5935
 5.5519 5.4770 5.4369 5.4361 5.4315 5.4066 5.4446 5.5764 5.7724 5.9785
 6.1002 6.1556 6.2704 6.5385 6.7578 6.8713 6.9165 6.8619 6.8253 6.9149
 7.0064 7.0180 7.0339 7.1503 7.3152 7.3996 7.3879 7.2828 7.0923 6.9162
 6.7615 6.5628 6.3452 6.0880 5.8378 5.6535 5.5359 5.4791 5.4606 5.4359
 5.4098 5.3969 5.3781 5.4353 5.5700 5.6726 5.7896 5.9704 6.0839 6.0958
 6.1558 6.3126 6.4769 6.5752 6.6845 6.8693 7.0645 7.1807 7.1944 7.1392
 7.1390 7.1450 7.0016 6.8746 6.9067 7.0130 7.0899 7.0336 6.8480 6.7229
 6.6944 6.6871 6.7384 6.8478 6.8840 6.7932 6.7362 6.8163 6.9129 6.8628
 6.7243 6.6242 6.5766 6.4936 6.4413 6.4059 6.3557 6.3364 6.3128 6.2219
 6.1593 6.2066 6.2607 6.2349 6.1670 6.0276 5.9447 5.9081 5.8476 5.7051
 5.5981 5.5551 5.5671 5.5723 5.5319 5.4605 5.3972 5.3503 5.3164 5.2709
 5.2126 5.2329 5.3106 5.3673 5.4024 5.3883 5.3785 5.3063 5.1860 5.1447
 5.1722 5.2026 5.1781 5.1726 5.2780 5.4063 5.4379 5.4231 5.3990 5.4373
 5.5697 5.8050 6.0582 6.2091 6.2732 6.3579 6.4463 6.3983 6.3063 6.2206
 6.1301 6.0545 5.9713 5.8876 5.8585 5.8161 5.8068 5.7525 5.6976 5.7381
 5.8915 6.1496 6.4626 6.8126 6.9345 6.6955 6.4572 6.5786 6.9165 7.2472
 7.4364 7.5257 7.3665 6.9737 6.6551 6.5115 6.3146 6.0901 5.9839 5.9029
 5.7175 5.5439 5.5078 5.5605 5.6019 5.6613 5.6882 5.6210 5.5650 5.6684
 5.7968 5.8491 5.8290 5.6853 5.4423 5.2461 5.1644 5.1887 5.0830 4.8508
 4.7067 4.7100 4.7592 4.7603 4.7065 4.7141 4.7602 4.7030 4.6238 4.6488
 4.7480 4.7994 4.7673 4.7283 4.7649 4.8891 5.0087 5.0192 5.0516 5.2417
 5.5029 5.5900 5.5905 5.7402 6.0851 6.4691 6.5175 6.2916 6.3351 6.6221
 6.9478 7.3892 7.7192 7.6874 7.7078 7.6973 7.5515 7.3865 7.1483 7.0033
 6.8934 6.6973 6.5138 6.4777 6.4898 6.5317 6.5513 6.3378 6.0275 5.8640
 5.9113 6.0860 6.2174 6.3322 6.4950 6.5855 6.5647 6.5880 6.6411 6.5283
 6.2745 6.0252 5.8416 5.7457 5.7485 5.7824 5.8235 5.9383 6.0030 6.1595
 6.5327 6.9438 7.2642 7.2726 7.0932 7.1636 7.3600 7.3045 7.1019 6.8683
 6.6717 6.6223 6.6699 6.7195 6.6062 6.4387 6.2875 6.0138 5.8213 5.7706
 5.6993 5.6004 5.5071 5.4190 5.3426 5.3089 5.2845 5.1526 5.0781 5.1060
 5.2327 5.3434 5.2683 5.1619 5.2049 5.3115 5.2991 5.2061 5.1280 5.1660
 5.2069 5.1490 5.0859 5.1693 5.3611 5.4059 5.4945 5.7696 5.9662 6.0413
 6.1276 6.1642 6.1055 6.1621 6.2225 6.3770 6.7311 7.0988 7.2629 7.3728
 7.4423 7.4880 7.7882 8.2765 8.4378 8.2576 8.1676 8.2481 8.1825 7.9486
 7.6042 7.3838 7.1938 6.7813 6.3843 6.0797 5.8601 5.7285 5.5672 5.3519
 5.2575 5.3228 5.2733 5.2158 5.3794 5.6131 5.7445 5.8253 5.9051 5.9076
 5.8919 5.8827 5.8712 5.8195 5.7425 5.7989 5.9268 6.0266 5.9933 5.8926
 5.8117 5.6846 5.4040 5.2678 5.2110 5.0740 4.8853 4.7059 4.5893 4.5176
 4.4585 4.4732 4.5573 4.6648 4.7514 4.7770 4.7066 4.6161 4.5844 4.6345
 4.7296 4.8080 4.8299 4.7708 4.7587 4.7252 4.7289 4.8712 4.9823 4.9752
 4.8736 4.7860 4.7242 4.7099 4.7406 4.8282 5.0191 5.2038 5.2760 5.3403
 5.5924 5.7978 5.7830 5.5983 5.4674 5.4816 5.4063 5.2732 5.2583 5.3186
 5.3680 5.5069 5.6989 5.7660 5.7209 5.5778 5.3593 5.3113 5.4927 5.6277
 5.6717 5.5860 5.4743 5.5046 5.5823 5.7698 5.9910 6.0411 6.0050 5.9485
 5.7550 5.4590 5.2143 5.1072 5.0605 5.0155 5.0471 5.1189 5.1211 5.2111
 5.5288 5.8667 6.0409 5.9962 5.9622 5.9249 5.9230 6.0753 6.3296 6.3968
 6.2789 6.3173 6.3580 6.2624 6.1039 5.9397 5.8198 5.7194 5.7484 5.9618
 6.1625 6.2679 6.2920 6.2672 6.2165 6.1795 6.1917 6.1063 5.9528 5.9138
 5.9787 6.1642 6.4548 6.5268 6.2974 6.2028 6.2858 6.2373 6.0321 5.8886
 5.7513 5.6010 5.5474 5.4389 5.3306 5.2907 5.2677 5.3856 5.5568 5.5703
 5.5414 5.7554 6.0497 6.2740 6.4634 6.6538 6.6166 6.5715 6.5252 6.2786
 6.1087 6.0813 6.0743 6.0952 6.0782 6.0202 6.0417 5.9893 5.8169 5.7908
 5.7779 5.7637 5.7148 5.7029 5.7553 5.6685 5.6176 5.6154 5.5480 5.4881
 5.7724 6.1961 6.2228 5.9684 6.0061 6.4038 6.5275 6.3638 6.2751 6.2245
 6.1062 6.1848 6.4411 6.4662 6.3475 6.2931 6.4427 6.7583 6.8722 6.4381
 6.1636 6.2352 6.4239 6.6609 6.9478 7.0911 6.9744 6.8500 6.8125 6.7535
 6.6383 6.5924 6.5779 6.3974 6.0965 5.8251 5.6666 5.5071 5.3854 5.3345
 5.2225 5.0579 4.9551 5.0065 5.1792 5.2516 5.2456 5.1904 4.8944 4.7034
 4.6784 4.5648 4.4010 4.3165 4.3545 4.3282 4.1376 3.9784 3.9836 3.9751
 3.9318 3.9818 4.0718 4.0917 4.0469 4.0115 4.0739 4.0920 3.9917 3.9152
 3.9033 3.8974 3.9962 4.2603 4.5236 4.7825 5.2394 5.5450 5.4095 5.2497
 5.4704 5.8363 6.0607 6.2773 6.5021 6.4533 6.2293 5.9924 5.8392 5.8868
 6.1297 6.3701 6.3786 6.1183 6.1042 6.3598 6.5369 6.6485 6.5331 6.2128
 6.0649 6.0661 5.9903 5.9145 5.9710 5.9777 5.8063 5.5630 5.3266 5.1220
 5.0826 5.0767 5.0788 5.1077 5.1173 5.0537 4.8812 4.7353 4.5549 4.3184
 4.2280 4.3244 4.2516 4.1216 4.0565 3.9480 3.8732 3.9230 3.9518 3.8959
 3.8684 3.8529 3.8433 3.8665 3.8822 3.9951 4.1586 4.3485 4.7330 4.9982
 4.9939 5.0565 5.2445 5.7226 6.0913 6.0752 6.2530 6.3562 6.2291 6.0875
 6.0514 6.1811 6.2787 6.4706 6.6194 6.6279 6.6096 6.3738 5.9887 5.9148
 6.0240 6.0233 5.9798 5.9438 5.9093 5.8283 5.7214 5.6624 5.6271 5.4868
 5.3101 5.1714 5.1252 5.0841 4.9732 4.8263 4.6896 4.5234 4.3411 4.2188
 4.1417 4.1178 4.1034 4.0443 3.9878 3.8519 3.7097 3.7081 3.8805 4.0300
 4.0485 4.0108 4.0513 4.2038 4.4004 4.5789 4.6944 4.7660 4.8006 4.8479
 4.8681 4.9562 5.1058 5.1919 5.3122 5.4953 5.5828 5.5332 5.5087 5.5717
 5.7296 5.8686 5.8004 5.8120 5.9101 6.0023 5.9678 5.7694 5.6394 5.4852
 5.2153 5.0614 5.1959 5.2453 5.2360 5.3091 5.3296 5.3779 5.5064 5.6867
 6.1036 6.7839 7.3749 7.6254 7.5204 7.7291 8.4007 8.4399 7.9958 7.9075
 7.9425 7.8895 7.7921 7.3751 6.7484 6.3715 6.2386 6.1160 6.0583 6.1292
 6.1880 6.2138 6.2043 6.1360 5.9394 5.7740 5.7374 5.7799 5.9406 5.9857
 5.7989 5.5064 5.3908 5.3858 5.3106 5.2400 5.2410 5.0775 4.9060 4.9047
 5.0440 5.0574 4.9859 4.8421 4.6659 4.4505 4.2185 4.0430 3.9271 3.8325
 3.7776 3.7236 3.6693 3.6168 3.5914 3.5680 3.4806 3.4609 3.4973 3.4858
 3.4533 3.4726 3.5190 3.5066 3.3976 3.3073 3.2570 3.3071 3.4035 3.4266
 3.4904 3.5869 3.6285 3.7480 3.9010 4.1217 4.6002 5.2366 5.6656 5.8634
 6.1394 6.3745 6.4365 6.4638 6.7807 7.3495 7.7011 7.4920 6.9955 6.6708
 6.8763 7.3081 7.6015 7.7815 7.7180 7.3863 7.0573 6.8950 6.7596 6.4402
 6.0958 5.9077 5.9786 6.2111 6.2130 5.9805 6.0362 6.0820 5.9508 5.7854
 5.4350 5.0174 4.6704 4.4869 4.3347 4.0625 3.8860 3.8995 4.0285 4.1284
 4.1300 3.9602 3.8535 3.9258 4.0182 4.0336 4.0428 4.0425 4.0673 4.0173
 3.8674 3.6416 3.5095 3.4565 3.3902 3.3097 3.2410 3.2328 3.2609 3.3219
 3.3415 3.2249 3.0789 2.9875 2.9847 2.9988 3.1080 3.3821 3.6627 3.6716
 3.6330 3.5620 3.4441 3.4742 3.5284 3.5808 3.6419 3.6445 3.6398 3.6717
 3.7411 3.8614 3.9755 4.0023 3.9852 4.0081 3.9938 4.0031 3.9446 3.8603
 3.8552 3.8928 3.9791 4.2124 4.3591 4.2489 4.1931 4.2045 4.2049 4.2628
 4.2262 4.1553 4.1431 4.1963 4.1691 4.1430 4.3396 4.6228 4.7829 4.8830
 5.0612 5.4316 5.6447 5.4692 5.3157 5.3931 5.6863 6.2405 6.9050 6.9978
 6.8639 7.1615 7.4677 7.3673 7.1620 6.8383 6.4252 6.2133 6.1272 6.0083
 5.8087 5.5610 5.3609 5.3871 5.3627 5.2174 5.2490 5.2910 5.1726 5.1058
 4.9867 4.7415 4.6762 4.7140 4.6114 4.4484 4.3743 4.4226 4.6011 4.5805
 4.3254 4.0597 3.8492 3.8248 3.7860 3.6872 3.6737 3.6741 3.6516 3.5620
 3.4923 3.5234 3.6251 3.6452 3.7317 3.9072 3.9868 3.9270 3.9395 4.0317
 4.1426 4.3694 4.5228 4.6457 4.9042 5.2205 5.5074 5.8499 6.2597 6.4281
 6.5311 6.8020 7.2243 7.7766 8.3423 8.3350 8.0455 8.0653 8.0312 7.8868
 7.9710 7.8805 7.5689 6.9964 6.5142 6.2685 5.9174 5.4492 5.0669 4.9096
 4.9008 5.0456 5.2255 5.2665 5.0476 4.7064 4.5950 4.5525 4.3980 4.3712
 4.3671 4.3105 4.3201 4.3177 4.0878 3.7979 3.6838 3.7482 3.7567 3.6471
 3.5314 3.4975 3.4615 3.4206 3.4238 3.4384 3.4774 3.6060 3.7397 3.8943
 4.1432 4.2077 4.2566 4.3995 4.4378 4.3519 4.2585 4.2945 4.3451 4.4564
 4.5090 4.3642 4.1628 4.0644 4.0639 4.0909 4.0365 4.0280 4.0835 4.0095
 3.9083 3.9560 4.1224 4.0832 3.8576 3.7177 3.7219 3.7386 3.8581 4.0488
 4.2072 4.3190 4.2817 4.3309 4.5275 4.7318 4.8632 4.7057 4.5886 4.5901
 4.4700 4.4332 4.5585 4.6646 4.7007 4.8274 4.8427 4.8277 4.8415 4.8599
 4.8294 4.5937 4.4049 4.2956 4.0994 4.0270 4.1356 4.2763 4.3692 4.5701
 4.7036 4.7603 4.8871 4.8357 4.6052 4.5334 4.4440 4.2915 4.2377 4.0195
 3.7563 3.6672 3.6128 3.5581 3.5736 3.4393 3.2915 3.3327 3.3631 3.2845
 3.3371 3.4407 3.4330 3.4790 3.5913 3.9293 4.3813 4.6353 4.7725 4.7487
 4.5904 4.4927 4.3808 4.1959 4.1129 4.1656 4.2948 4.3366 4.1879 3.9699
 3.8976 3.8881 3.8713 3.8505 3.8324 3.6762 3.5415 3.5344 3.5699 3.6517
 3.7653 3.8725 4.0596 4.0827 3.9878 4.0173 4.0778 4.0627 3.9299 3.8213
 3.6883 3.5185 3.5289 3.5917 3.4964 3.2993 3.0684 2.8766 2.7962 2.7960
 2.8028 2.8480 2.9135 2.9825 3.0702 3.1209 3.2456 3.4447 3.4606 3.5732
 3.8454 4.0689 4.3211 4.5684 4.8098 5.0184 5.1021 5.0377 5.0043 5.0014
 4.9980 5.1106 5.2663 5.3471 5.2970 5.4141 5.5446 5.3072 4.9772 4.7539
 4.5881 4.4992 4.6014 4.7534 4.8331 4.8229 4.7506 4.6051 4.4076 4.3347
 4.2852 4.1928 4.0769 3.8741 3.6379 3.4587 3.2640 3.2061 3.3563 3.5849
 3.7038 3.5834 3.5377 3.7891 4.0353 4.1147 3.9810 3.9163 4.0295 4.0218
 3.9774 3.9424 4.0215 4.2382 4.3004 4.2439 4.3149 4.5106 4.5790 4.5716
 4.6016 4.6474 4.7775 4.9254 5.1613 5.4021 5.2619 4.9153 4.6285 4.5906
 4.5530 4.5445 4.6169 4.5527 4.3008 4.0134 3.8816 3.9323 4.0999 4.1660
 4.1273 4.0011 3.8108 3.7299 3.7243 3.6254 3.5482 3.4967 3.4187 3.3707
 3.2763 3.2015 3.1918 3.1792 3.1302 3.1059 3.2056 3.2873 3.2826 3.2860
 3.2786 3.2885 3.3313 3.3281 3.3668 3.4543 3.5015 3.6577 3.9649 4.0608
 4.1162 4.7193 5.3530 5.6692 6.0537 6.2429 6.0970 5.7599 5.4803 5.5374
 5.7618 5.9131 5.9351 5.8587 5.6765 5.5687 5.4952 5.3376 5.0678 4.8561
 4.6876 4.4816 4.3298 4.2693 4.2978 4.3540 4.4129 4.3099 4.1339 4.0036
 3.9203 4.0483 4.2873 4.3812 4.2664 4.2409 4.1760 4.0506 4.0384 4.0468
 4.0002 3.7715 3.6167 3.6004 3.5914 3.5187 3.4106 3.2815 3.1592 3.0870
 3.0562 2.9475 2.7753 2.6531 2.5330 2.3878 2.3200 2.2937 2.2992 2.3388
 2.3030 2.2376 2.1751 2.1557 2.2415 2.3208 2.3575 2.2993 2.2719 2.4114
 2.5924 2.8354 2.9911 3.0556 3.0932 3.1887 3.3086 3.5202 3.9024 4.1893
 4.1302 4.0604 4.2105 4.4983 4.7505 4.7965 4.7379 4.5114 4.4046 4.3336
 4.1500 4.0673 3.9766 3.9044 3.9158 4.0092 4.0438 3.8653 3.7122 3.6986
 3.9547 4.1830 4.1101 4.0660 4.0518 3.9944 4.1705 4.2819 4.0029 3.7540
 3.6316 3.2907 3.0345 3.0112 3.1477 3.2659 3.2363 3.1258 3.0546 3.0130
 3.0270 3.1052 3.1310 3.0682 2.9851 2.9450 2.9242 2.9493 2.9959 2.8491
 2.6983 2.6474 2.7076 2.7604 2.6285 2.4649 2.3906 2.3765 2.3843 2.3654
 2.3233 2.3836 2.5766 2.7392 2.8251 2.8736 2.9425 2.9773 2.8997 2.8358
 2.8282 2.9193 3.1165 3.2167 3.1592 3.0883 3.0225 2.9066 2.8207 2.7987
 2.7334 2.6824 2.6530 2.5887 2.6255 2.7604 2.8404 2.7820 2.5963 2.4910
 2.5631 2.6714 2.7778 2.8247 2.7980 2.7184 2.6669 2.8053 3.0114 3.0874
 3.1110 3.1711 3.3327 3.4257 3.3422 3.2315 3.1934 3.1688 3.1302 3.1688
 3.2546 3.2276 3.1190 2.9886 2.8671 2.8314 2.8840 2.8955 2.9572 3.0433
 3.1399 3.1540 3.0136 2.9810 3.0185 2.9064 2.8276 2.8758 2.9461 3.1391
 3.3860 3.3229 3.2693 3.4246 3.5133 3.6201 4.0464 4.5912 4.7008 4.5964
 4.6341 5.0982 5.6860 5.8185 5.5799 5.2425 5.1443 5.1372 4.9952 4.7582
 4.6482 4.6118 4.4298 4.2576 4.3036 4.5034 4.4837 4.3530 4.5620 4.9887
 5.2268 5.0167 4.6888 4.6541 4.7289 4.5808 4.3723 4.3519 4.4532 4.3746
 4.2050 4.1593 4.2468 4.2632 4.1111 4.0020 3.8054 3.5195 3.2882 3.1497
 3.2879 3.4608 3.5385 3.5670 3.4290 3.1893 3.0442 3.1294 3.2753 3.3056
 3.2417 3.1416 3.0628 2.9474 2.7783 2.7307 2.9057 3.0582 2.9958 2.7907
 2.7165 2.7937 2.9555 2.9437 2.7846 2.6923 2.6669 2.7230 2.8083 2.8243
 2.8490 2.8668 2.7701 2.6529 2.6476 2.7558 2.9133 2.9518 2.9214 2.8805
 2.7737 2.6736 2.6337 2.7277 2.8866 2.9279 2.8006 2.6493 2.5637 2.5340
 2.5744 2.6056 2.6293 2.6021 2.6599 2.7185 2.6081 2.5520 2.7184 2.8594
 2.8721 2.9265 2.9279 2.8447 2.9013 2.9462 2.9263 2.9899 3.1241 3.1562
 3.2178 3.4988 3.8750 4.0571 3.9649 3.9911 4.1285 4.1190 4.0540 4.1288
 4.3210 4.4174 4.3068 4.1987 3.9866 3.7812 3.6574 3.4844 3.3236 3.2431
 3.2547 3.2335 3.2566 3.3541 3.3765 3.4597 3.4820 3.3349 3.2574 3.1981
 3.2127 3.2580 3.1736 3.0106 2.9536 3.0543 3.1898 3.2444 3.2029 3.2395
 3.5681 3.8091 3.7074 3.4043 3.2511 3.3157 3.3375 3.2653 3.1079 2.9879
 2.9664 2.9041 2.9027 2.8634 2.7182 2.6028 2.5699 2.5674 2.5070 2.4478
 2.3516 2.2770 2.2887 2.4165 2.4969 2.4659 2.3955 2.3147 2.3288 2.3098
 2.2162 2.1736 2.1390 2.0720 1.9815 1.8708 1.7519 1.7352 1.8418 1.9579
 1.9348 1.8886 1.8866 1.8738 1.8081 1.7812 1.7536 1.7105 1.7533 1.8179
 1.8342 1.8102 1.7790 1.8261 1.9151 1.9988 2.0416 2.0237 1.9530 1.9566
 2.0713 2.1004 2.0899 2.2098 2.3246 2.3517 2.3559 2.2644 2.1855 2.1868
 2.2566 2.4082 2.4868 2.4722 2.3777 2.2826 2.3235 2.4836 2.4707 2.4009
 2.3751 2.3395 2.2705 2.2110 2.2171 2.1894 2.2622 2.4429 2.4577 2.4005
 2.4323 2.4338 2.3665 2.3347 2.4303 2.4707 2.4774 2.5365 2.5699 2.5607
 2.4318 2.2562 2.1531 2.0353 1.9065 1.8607 1.8982 2.0187 2.0768 2.0541
 2.0337 2.0633 2.1368 2.1771 2.1427 2.0270 1.8909 1.8326 1.8403 1.8706
 1.9467 1.9862 1.9820 1.9992 2.0289 2.0990 2.2100 2.2550 2.3123 2.4641
 2.5629 2.6022 2.6195 2.6576 2.6992 2.7849 2.8495 2.9327 3.0377 3.0768
 3.3005 3.7482 4.1214 4.1349 4.1483 4.1284 4.1076 4.3306 4.5587 4.6800
 4.8897 5.2813 5.4725 5.3085 4.9482 4.4835 4.1927 4.0041 3.8429 3.7844
 3.9076 4.0719 4.0301 4.0030 4.0955 3.8907 3.6170 3.4724 3.4437 3.4972
 3.4145 3.2926 3.1502 3.0297 2.9537 2.8532 2.6943 2.6039 2.7389 2.9351
 3.1044 2.9939 2.7664 2.6184 2.5479 2.4746 2.4589 2.3870 2.2186 2.1436
 2.1788 2.1311 2.0658 2.0539 1.9811 1.8718 1.7910 1.7176 1.6578 1.6375
 1.6350 1.6833 1.7381 1.7343 1.6994 1.6162 1.6116 1.7297 1.8654 1.9094
 1.8889 1.9625 2.1265 2.2659 2.3219 2.2641 2.2536 2.2662 2.2154 2.1921
 2.1553 2.0835 2.0123 1.9590 1.8727 1.8290 1.8791 1.9485 2.0239 2.0651
 2.0426 2.0231 2.0007 1.9811 2.0102 2.1092 2.2445 2.3490 2.4131 2.5315
 2.6548 2.6341 2.6701 2.6535 2.5762 2.6623 2.7612 2.8023 2.7878 2.6989
 2.6269 2.6052 2.5638 2.6707 2.8307 2.9119 2.9726 3.0554 3.0160 2.8804
 2.9358 3.2574 3.4217 3.2713 3.2045 3.2729 3.3654 3.3324 3.2431 3.3865
 3.6387 3.5788 3.2492 3.0810 3.0310 2.9558 2.9359 2.9461 2.9886 2.9622
 2.8266 2.7563 2.7238 2.8210 2.9994 3.1263 3.1710 3.0599 2.9885 3.0386
 3.1362 3.2170 3.0786 2.9890 3.0765 3.0697 3.0106 2.9573 2.9882 3.0768
 3.1076 3.0661 2.9908 2.9299 2.8748 2.9414 3.0416 2.9919 2.9622 3.0370
 3.0806 2.8685 2.6171 2.5345 2.5037 2.4576 2.2953 2.1974 2.2045 2.2114
 2.1561 2.1008 2.0468 1.9935 1.9207 1.8453 1.8163 1.8313 1.7768 1.7107
 1.7081 1.7164 1.6808 1.6844 1.7794 1.8645 1.8463 1.7368 1.6261 1.5209
 1.4213 1.3791 1.3946 1.4402 1.4929 1.4925 1.4434 1.4155 1.3873 1.3649
 1.3969 1.3905 1.3174 1.2669 1.2600 1.2821 1.2984 1.3440 1.3196 1.2206
 1.1548 1.1328 1.1210 1.1100 1.0537 1.0029 1.0231 1.0447 1.0519 1.0664
 1.0684 1.0831 1.0894 1.1153 1.1691 1.1616 1.0902 1.0168 1.0071 1.0733
 1.1586 1.1988 1.1650 1.1575 1.2014 1.2487 1.2422 1.2014 1.2317 1.3170
 1.3042 1.2622 1.2687 1.3000 1.3905 1.5115 1.5864 1.5980 1.5784 1.5274
 1.4307 1.3289 1.2916 1.2997 1.3402 1.3976 1.4339 1.4440 1.4417 1.4210
 1.4657 1.5218 1.5566 1.6143 1.7148 1.7818 1.8403 1.8752 1.8818 1.9650
 2.0679 2.1324 2.2815 2.4053 2.3535 2.3966 2.4787 2.4066 2.3977 2.5724
 2.7331 2.7961 2.8997 3.0606 3.0629 2.8743 2.5380 2.2639 2.1620 2.1198
 2.1073 2.1871 2.2106 2.0382 1.8474 1.7722 1.7474 1.8387 1.9276 1.8799
 1.8053 1.8340 1.8260 1.7805 1.8263 1.9116 1.9838 2.0936 2.2429 2.3379
 2.3992 2.5729 2.7838 2.8402 2.7898 2.7958 2.8024 2.8927 3.0768 3.2950
 3.6527 3.8941 3.6746 3.2603 3.0658 2.9539 2.7925 2.8031 2.8432 2.7849
 2.8354 2.8610 2.7266 2.5159 2.3138 2.2539 2.2329 2.1990 2.1147 2.0191
 1.9406 1.9006 1.8954 1.9191 1.9606 1.9199 1.8318 1.9031 1.9873 2.0280
 2.0646 2.1331 2.1651 2.0880 2.0486 1.9788 1.9355 1.9880 1.9480 1.8262
 1.8278 1.9520 1.9958 1.8808 1.7366 1.6228 1.6273 1.6588 1.6460 1.6449
 1.6000 1.4666 1.4047 1.4749 1.5598 1.6771 1.6234 1.4249 1.3356 1.3347
 1.4233 1.5850 1.5969 1.5089 1.5195 1.5738 1.6280 1.6778 1.6394 1.6000
 1.5566 1.5194 1.5930 1.7600 1.9040 2.0466 2.1685 2.1216 1.9347 1.7685
 1.7219 1.8184 1.9945 2.0698 2.0512 2.1068 2.2482 2.4165 2.5260 2.4398
 2.2568 2.1525 2.1900 2.2664 2.2778 2.1630 2.1239 2.3345 2.6756 2.9194
 2.9066 2.7192 2.5305 2.3933 2.3599 2.3481 2.3090 2.2676 2.3003 2.4125
 2.3604 2.2273 2.1871 2.1896 2.2255 2.2626 2.2007 2.0714 2.0398 2.1136
 2.1692 2.2228 2.3099 2.2482 2.1252 2.0771 2.1008 2.2069 2.1636 2.1553
 2.2648 2.3589 2.5164 2.5869 2.3499 2.1587 2.0381 1.9190 1.8961 1.9167
 1.9256 1.9311 1.9829 2.0299 2.1117 2.1626 2.1020 2.2024 2.2019 2.0540
 2.2268 2.3976 2.2571 2.1862 2.1603 2.2242 2.4533 2.4920 2.2886 2.1093
 1.9954 1.8999 1.8604 1.8684 1.8013 1.7236 1.8025 1.8763 1.8634 1.7239
 1.5782 1.5253 1.5275 1.5355 1.5175 1.4973 1.5014 1.5471 1.5672 1.5355
 1.5014 1.4865 1.4097 1.2885 1.2074 1.2097 1.2541 1.3129 1.3656 1.3586
 1.3402 1.3975 1.4294 1.3558 1.3032 1.3075 1.3163 1.3453 1.3429 1.2798
 1.2285 1.2026 1.1987 1.1671 1.1323 1.1204 1.1461 1.1292 1.1007 1.0931
 1.0660 1.0597 1.0768 1.1210 1.1716 1.1572 1.1433 1.1917 1.2083 1.1912
 1.1732 1.1830 1.1937 1.1129 1.0178 0.9889 1.0196 1.0697 1.0917 1.0912
 1.0918 1.1160 1.1322 1.1302 1.1732 1.1993 1.1100 1.0247 0.9761 0.9368
 0.9517 0.9840 0.9790 0.9107 0.8524 0.8417 0.8592 0.8969 0.9531 0.9718
 0.9852 1.0081 1.0393 1.0425 1.0183 0.9930 0.9413 0.8791 0.8373 0.8619
 0.9376 1.0170 1.1614 1.2304 1.2144 1.2559 1.3042 1.3190 1.3187 1.3923
 1.4886 1.6355 1.8511 1.9988 1.9398 1.8719 1.8744 1.9007 1.9672 1.8917
 1.6994 1.5283 1.4975 1.4842 1.4121 1.3725 1.4468 1.5281 1.5837 1.6228
 1.5919 1.5884 1.6011 1.5486 1.5313 1.6011 1.6672 1.6076 1.5191 1.4580
 1.4708 1.6230 1.7293 1.7052 1.6773 1.7673 1.8098 1.7476 1.7260 1.7248
 1.6414 1.5138 1.4138 1.3862 1.4210 1.4410 1.4454 1.4343 1.3709 1.3625
 1.3935 1.4091 1.4221 1.4276 1.4745 1.5002 1.4323 1.3317 1.2166 1.1538
 1.1568 1.1511 1.1299 1.1576 1.2154 1.2560 1.2778 1.2340 1.1666 1.1341
 1.1171 1.1100 1.1301 1.1465 1.2117 1.2485 1.1695 1.1528 1.1408 1.1372
 1.1297 1.0717 1.0288 1.0533 1.1090 1.1655 1.1694 1.1559 1.2230 1.3136
 1.3253 1.3100 1.2819 1.2587 1.2836 1.3080 1.4034 1.4726 1.3722 1.3433
 1.4457 1.3567 1.1148 1.0215 1.0150 1.0078 1.0025 1.0626 1.1295 1.1228
 1.1178 1.1568 1.1291 1.0990 1.1818 1.2301 1.1859 1.1616 1.1591 1.2268
 1.3285 1.3331 1.2778 1.3027 1.3401 1.3869 1.4342 1.4482 1.5175 1.5686
 1.6616 1.8330 1.9997 2.1642 2.2502 2.1489 2.0184 2.0202 2.0974 2.1611
 2.2222 2.2598 2.2703 2.3220 2.3194 2.2190 2.1202 1.9908 1.8763 1.7980
 1.7854 1.8547 1.9068 1.9600 2.0411 2.0864 1.9785 1.8480 1.8190 1.8858
 1.9912 2.0492 2.0521 2.0256 1.9944 2.0397 2.0628 2.0785 2.0915 1.9889
 1.8635 1.7288 1.6419 1.6434 1.6004 1.4881 1.4214 1.3707 1.2784 1.2519
 1.3110 1.3778 1.4120 1.4528 1.5047 1.5609 1.6158 1.6004 1.6217 1.6411
 1.6368 1.6680 1.6830 1.6629 1.7126 1.7330 1.7213 1.6653 1.6362 1.5900
 1.5012 1.5207 1.5781 1.5341 1.4911 1.4140 1.3650 1.3969 1.4077 1.3688
 1.3018 1.2744 1.2964 1.3023 1.2796 1.2709 1.2693 1.2811 1.3014 1.3031
 1.2998 1.3162 1.3265 1.3144 1.3031 1.2178 1.0917 1.0486 1.0982 1.1407
 1.1564 1.1934 1.2749 1.2960 1.3106 1.3347 1.3052 1.2729 1.3232 1.4222
 1.4518 1.4461 1.4797 1.4821 1.4321 1.4518 1.4559 1.3178 1.1773 1.1530
 1.1708 1.1554 1.1591 1.1789 1.2297 1.2825 1.2680 1.2590 1.2595 1.2961
 1.3229 1.3167 1.3277 1.3032 1.2248 1.2034 1.2367 1.2485 1.2809 1.3376
 1.3334 1.3195 1.2876 1.2624 1.2494 1.2388 1.2543 1.2598 1.2598 1.2945
 1.3921 1.4004 1.3174 1.3554 1.4249 1.3909 1.4057 1.4683 1.5532 1.4911
 1.3604 1.3496 1.3371 1.2784 1.2272 1.1951 1.1639 1.1706 1.2115 1.2720
 1.3339 1.3441 1.2796 1.1901 1.1113 1.0366 0.9476 0.8866 0.9133 0.9511
 0.9552 0.9559 0.9589 0.9655 0.9790 1.0429 1.1423 1.1456 1.0570 0.9655
 0.9222 0.9313 0.9812 1.0380 1.0562 1.0274 0.9392 0.8537 0.8353 0.8680
 0.8492 0.8234 0.8280 0.8293 0.7970 0.7358 0.6723 0.6100 0.5630 0.5183
 0.4795 0.4732 0.4866 0.5006 0.5079 0.5004 0.5112 0.5485 0.5788 0.5865
 0.5642 0.5396 0.5366 0.5319 0.5336 0.5455 0.5826 0.6345 0.7138 0.7569
 0.7494 0.6855 0.6329 0.6650 0.7314 0.7536 0.7146 0.6494 0.6026 0.5723
 0.5681 0.5533 0.5211 0.5173 0.5445 0.5520 0.5409 0.5306 0.5538 0.6000
 0.6251 0.6168 0.5902 0.5756 0.5512 0.5556 0.5825 0.5798 0.5620 0.5996
 0.6296 0.5899 0.6009 0.6623 0.7752 0.9321 1.0268 1.0586 1.0039 0.9242
 0.9382 0.9928 1.0531 1.1717 1.2791 1.3097 1.3038 1.2359 1.1516 1.1039
 1.0820 1.0149 0.9634 0.9776 1.0652 1.1186 1.0866 1.0677 1.1643 1.2624
 1.2463 1.2043 1.1795 1.2162 1.1242 0.9732 0.8781 0.8533 0.8485 0.8249
 0.8489 0.8563 0.7933 0.7431 0.7442 0.7529 0.7501 0.7112 0.6492 0.5822
 0.5464 0.5603 0.5570 0.5315 0.5066 0.4726 0.4470 0.4319 0.4425 0.4612
 0.4740 0.4830 0.5140 0.5366 0.5355 0.5534 0.5915 0.6088 0.6125 0.6519
 0.7176 0.7276 0.6907 0.6970 0.7586 0.8144 0.8964 1.0585 1.1582 1.1356
 1.1163 1.1831 1.2062 1.1306 1.0606 1.0815 1.1979 1.2690 1.2109 1.2169
 1.3615 1.4248 1.3785 1.3844 1.3594 1.2856 1.2095 1.1759 1.1679 1.1846
 1.2367 1.3221 1.3555 1.3520 1.3264 1.2838 1.2839 1.3688 1.4934 1.4711
 1.3473 1.2614 1.2359 1.2775 1.2678 1.2841 1.3329 1.3264 1.2962 1.2397
 1.1776 1.1489 1.1247 1.0707 1.0316 1.0371 1.0854 1.1082 1.1208 1.1133
 1.0397 0.9634 0.9460 0.9620 0.9759 0.9886 1.0406 1.0841 1.0921 1.1264
 1.1756 1.1577 1.1437 1.1929 1.2690 1.3023 1.3322 1.4744 1.6223 1.6347
 1.5771 1.4969 1.4816 1.3881 1.2944 1.2504 1.2208 1.2623 1.2428 1.1487
 1.0913 1.0391 0.9841 0.9969 1.0268 1.0113 1.0259 1.0640 1.0475 1.0543
 1.1093 1.1077 1.0539 0.9979 0.9179 0.8337 0.7776 0.7796 0.7869 0.7928
 0.8300 0.8210 0.7615 0.7954 0.8964 0.9402 0.9399 0.8914 0.8813 1.0629
 1.2902 1.3362 1.2857 1.2158 1.1558 1.1494 1.1770 1.2367 1.2534 1.2616
 1.3339 1.3341 1.2302 1.1574 1.1829 1.1762 1.1157 1.0923 1.1142 1.1684
 1.1791 1.1153 1.0581 1.0106 0.9753 0.9528 0.9416 1.0327 1.1892 1.2567
 1.2011 1.1407 1.1402 1.1205 1.0804 1.0921 1.2020 1.3169 1.3429 1.3514
 1.3912 1.4036 1.3214 1.2130 1.1584 1.1472 1.1133 1.0879 1.0826 1.0743
 1.0480 0.9646 0.9089
